"Time (s)","Linear Acceleration x (m/s^2)","Linear Acceleration y (m/s^2)","Linear Acceleration z (m/s^2)","Absolute acceleration (m/s^2)"
9.307666667E-3,6.633022964E-2,-3.251051903E-1,-3.316762912E-1,4.691505582E-1
1.925166667E-2,8.876278013E-2,-3.527636898E-1,-4.908790165E-1,6.109691161E-1
2.919566668E-2,1.654370266E-1,-1.915489376E-2,-4.953182226E-1,5.225671836E-1
3.913966667E-2,1.219588852E-1,3.511773401E-1,-4.159668285E-1,5.578780299E-1
4.908366667E-2,5.207062483E-2,5.276211655E-1,-3.609591472E-1,6.413945355E-1
5.902766668E-2,-6.988212079E-2,4.359982198E-1,-2.846997607E-1,5.253873925E-1
6.897166667E-2,4.464349151E-4,5.068191111E-2,-5.297746950E-1,5.321936517E-1
7.891566667E-2,2.159897143E-1,-2.082795757E-1,-4.638982093E-1,5.524793996E-1
8.885966668E-2,3.286141044E-1,-9.430389404E-3,-3.733926666E-1,4.974919550E-1
9.880366667E-2,4.447076476E-1,4.834594846E-2,-4.118252456E-1,6.080314593E-1
1.087476667E-1,5.405166149E-1,-4.950252771E-2,-6.606418133E-1,8.550183137E-1
1.186916667E-1,5.731677595E-1,-6.010645330E-2,-1.084621666E0,1.228225641E0
1.286346667E-1,5.343975037E-1,1.375849843E-2,-1.604505211E0,1.691214641E0
1.385796667E-1,3.446500933E-1,8.051031232E-2,-2.037815466E0,2.068322381E0
1.485226667E-1,-3.285594329E-1,-3.491243827E-1,-2.038884337E0,2.094490027E0
1.584676667E-1,-7.670465201E-2,1.696826899E-1,-1.769994278E0,1.779762783E0
1.684116667E-1,5.491582149E-1,2.940903890E-1,-2.492335911E0,2.569008018E0
1.783546667E-1,6.293270499E-1,-2.609167957E-1,-3.188189657E0,3.260166161E0
1.882986667E-1,9.447334635E-1,-2.819486457E-1,-2.463107434E0,2.653095284E0
1.982426667E-1,1.505647506E0,-2.174006474E-1,-1.468260993E0,2.114244025E0
2.081866667E-1,1.902822845E0,-3.739393812E-1,-6.609645796E-1,2.048765388E0
2.181306667E-1,1.914298882E0,-4.201809168E-1,-8.503120404E-1,2.136380767E0
2.280746667E-1,2.315483657E0,-1.563124466E-1,-2.285068488E0,3.256905916E0
2.380186667E-1,2.685378812E0,-1.059357601E-1,-3.863023247E0,4.705893152E0
2.479626667E-1,2.998357462E0,-5.523946488E-1,-4.626373742E0,5.540633657E0
2.579066667E-1,3.069284188E0,-1.507885820E0,-5.466117525E0,6.447686862E0
2.678506667E-1,3.621295259E0,-1.622538609E0,-5.777614490E0,7.009082685E0
2.777946667E-1,4.349836695E0,-2.321265677E0,-2.356296930E0,5.464566665E0
2.877386667E-1,3.429640779E0,-4.011343719E0,2.310882776E0,5.761379480E0
2.976826667E-1,2.888023718E0,-4.274339785E0,9.023412085E0,1.039387451E1
3.076266667E-1,4.824002615E-1,-4.526467631E0,8.662973340E0,9.786149719E0
3.175706667E-1,-4.301001334E-1,-5.032344756E0,2.434301126E-1,5.056553973E0
3.275146667E-1,1.377026010E0,-5.092232523E0,-1.802220038E0,5.574498163E0
3.374586667E-1,3.713149170E0,-5.224232247E0,-6.714620858E-1,6.444450377E0
3.474026667E-1,3.690217559E0,-5.273966909E0,-2.223124255E0,6.809898240E0
3.573466667E-1,5.339020692E0,-5.502020599E0,-3.314214696E0,8.352328517E0
3.672906667E-1,5.032236582E0,-5.798381462E0,-6.320462390E0,9.944489802E0
3.772346667E-1,2.584188652E0,-6.311649467E0,-3.323375528E0,7.586815859E0
3.871786667E-1,1.053480565E0,-4.812113471E0,-2.191239388E0,5.391455037E0
3.971226667E-1,1.253472882E0,-2.546899788E0,-4.461821984E0,5.288265142E0
4.070666667E-1,2.159082626E0,-2.443445587E0,-3.943389133E0,5.116872284E0
4.170106667E-1,3.458920419E-1,-3.916654494E0,5.875593944E0,7.069825169E0
4.269546667E-1,-3.846076262E-1,-4.965510496E0,5.034594179E0,7.081762214E0
4.368986667E-1,1.267208576E-1,-3.665195569E0,1.289652529E0,3.887533972E0
4.468426667E-1,-9.293973863E-2,-3.120501704E0,1.012670508E0,3.282022278E0
4.567866667E-1,1.827383530E-1,-5.217239562E0,2.406795824E-1,5.225983985E0
4.667306667E-1,6.076601923E-1,-7.448530038E0,-4.427915150E-1,7.486381967E0
4.766746667E-1,3.661818802E-1,-8.926105646E0,1.340871799E-1,8.934619776E0
4.866186667E-1,-1.192427366E0,-8.637247345E0,1.573494503E0,8.860011833E0
4.965626667E-1,-2.497419480E0,-6.453584780E0,2.508456684E0,7.360585269E0
5.065066667E-1,-3.416324623E0,-3.867262478E0,3.238240653E0,6.092060040E0
5.164506667E-1,-3.983059568E0,-1.900099212E0,3.414503215E0,5.579782499E0
5.263946667E-1,-4.212171603E0,-1.039282064E0,2.841186644E0,5.186023368E0
5.363386667E-1,-5.251320058E0,-1.370549634E0,2.590626436E0,6.013826900E0
5.462826667E-1,-6.882219601E0,-2.032986543E0,2.818261465E0,7.709771631E0
5.562266667E-1,-8.163385481E0,-2.585197004E0,2.830861046E0,9.018751594E0
5.661706667E-1,-9.382421186E0,-2.571543171E0,2.491840067E0,1.004250609E1
5.761146667E-1,-1.053639258E1,-2.230192077E0,2.675993446E0,1.109730897E1
5.860586667E-1,-1.160514783E1,-2.038089116E0,2.632094890E0,1.207315977E1
5.960027917E-1,-1.272177189E1,-1.655353183E0,2.618162729E0,1.309345067E1
6.059467917E-1,-1.381538482E1,-5.522815052E-1,2.287140157E0,1.401430993E1
6.158907917E-1,-1.410580667E1,3.977568448E-1,1.651344332E0,1.420770672E1
6.258347917E-1,-1.341789461E1,1.198744698E0,9.351054382E-1,1.350375158E1
6.357787917E-1,-1.237253524E1,1.827386454E0,3.776260507E-1,1.251245663E1
6.457227917E-1,-1.112085921E1,2.087858276E0,-3.808703783E-1,1.132156014E1
6.556667917E-1,-9.990005364E0,2.075156955E0,-8.852111471E-1,1.024158593E1
6.656107917E-1,-9.314530919E0,2.006653900E0,-1.268506658E0,9.612297085E0
6.755537917E-1,-8.920371282E0,2.190797338E0,-1.102507129E0,9.251385774E0
6.854977917E-1,-8.369327924E0,3.420976667E0,1.981153607E-2,9.041522204E0
6.954417917E-1,-7.294348902E0,5.417169313E0,9.640950564E-1,9.136888340E0
7.053857917E-1,-5.631645768E0,7.013243424E0,1.090879064E0,9.060410284E0
7.153297917E-1,-4.214202926E0,7.884889031E0,9.476181874E-1,8.990492843E0
7.252737917E-1,-3.531123592E0,8.026990989E0,9.616763556E-1,8.821918135E0
7.352177917E-1,-2.989174994E0,8.396364865E0,7.305224723E-1,8.942470194E0
7.451617917E-1,-2.459675118E0,9.117841694E0,1.008752581E0,9.497506021E0
7.551057917E-1,-1.963492092E0,9.517440997E0,1.019290726E0,9.771178942E0
7.650497917E-1,-1.584213619E0,9.209626023E0,6.465231264E-1,9.367226720E0
7.749937917E-1,-1.206948341E0,8.541668174E0,3.762241808E-1,8.634718532E0
7.849377917E-1,-7.737257946E-1,7.973963760E0,6.525703168E-1,8.037947354E0
7.948817917E-1,-1.758433163E-2,8.090395857E0,1.996717580E0,8.333168391E0
8.048257917E-1,1.147462862E0,9.029375076E0,3.429545762E0,9.726667950E0
8.147697917E-1,1.731096261E0,9.984913609E0,4.664462505E0,1.115582379E1
8.247137917E-1,1.836349066E0,9.620494080E0,5.144278589E0,1.106298723E1
8.346577917E-1,1.929225655E0,8.446682494E0,5.132537380E0,1.007031761E1
8.446017917E-1,1.786786312E0,6.922207539E0,4.576538216E0,8.488478343E0
8.545457917E-1,2.420696409E0,5.786881742E0,4.173254290E0,7.534176981E0
8.644897917E-1,3.938837661E0,4.660683450E0,4.195462015E0,7.405289586E0
8.744337917E-1,5.221386992E0,3.101234251E0,3.909968495E0,7.222768834E0
8.843777917E-1,6.056754718E0,2.171426682E0,3.182374016E0,7.178222338E0
8.943217917E-1,6.503075028E0,7.800059965E-1,2.262522648E0,6.929459063E0
9.042657917E-1,5.535196531E0,2.263696915E-1,2.322101244E0,6.006812637E0
9.142097917E-1,4.201011608E0,1.546406107E0,2.678701292E0,5.216829591E0
9.241537917E-1,2.682807791E0,1.471969298E0,3.626323864E0,4.744931615E0
9.340977917E-1,6.297696841E-1,1.141260720E0,3.560568416E0,3.791666300E0
9.440417917E-1,-3.406365645E-1,-1.503564727E-1,2.138539603E0,2.170712319E0
9.539857917E-1,-1.050615429E0,-2.291596904E0,1.716268306E0,3.049719012E0
9.639297917E-1,-2.237214875E0,-1.710235295E0,1.971700706E0,3.437679281E0
9.738737917E-1,-2.796984032E0,-9.654626470E-1,2.782266298E0,4.061556790E0
9.838177917E-1,-2.559781204E0,9.746802709E-1,2.065133657E0,3.430343783E0
9.937617917E-1,-2.073709184E0,3.575696625E0,1.966846640E0,4.577593455E0
1.003705792E0,-2.069568186E0,4.735483956E0,2.757083802E0,5.857425361E0
1.013649792E0,-2.301108570E0,6.090360421E0,2.895942895E0,7.125593025E0
1.023593792E0,-2.934619887E0,5.834019071E0,2.770356105E0,7.093845597E0
1.033537792E0,-2.921506337E0,3.948390257E0,1.246206255E0,5.067347918E0
1.043481792E0,-1.347753387E0,7.569966182E-1,-1.592181619E0,2.219127167E0
1.053425792E0,1.326649032E0,6.989147633E-1,-2.954159528E0,3.312934955E0
1.063369792E0,3.122774516E0,2.862085177E0,-1.402409066E0,4.462062688E0
1.073313792E0,2.355809273E0,-8.208748180E-1,-7.210669398E-1,2.596846227E0
1.083257792E0,3.026426436E0,-1.456663626E0,-3.370139513E0,4.758042268E0
1.093201792E0,2.458477024E0,2.426670510E-1,-5.858461602E0,6.358031843E0
1.103145792E0,1.480476996E0,1.258729821E0,-6.591141697E0,6.871634578E0
1.113089792E0,9.309685332E-1,1.808103798E0,-5.949132621E0,6.287139310E0
1.123033792E0,6.018591696E-1,1.781875528E0,-5.194427819E0,5.524436191E0
1.132977792E0,-2.194021493E-1,6.787799493E-1,-4.600478178E0,4.655456905E0
1.142920792E0,-9.515980947E-1,-9.264857653E-1,-4.232793564E0,4.436266015E0
1.152864792E0,2.400492525E-1,-1.510344574E0,-4.498840414E0,4.751665965E0
1.162808792E0,1.554134957E0,-2.401431880E0,-4.659449102E0,5.467419545E0
1.172752792E0,1.593457482E0,-4.187804502E0,-3.907511203E0,5.945204546E0
1.182696792E0,1.632765974E0,-6.271018919E0,-2.770957491E0,7.047681067E0
1.192640792E0,1.870845884E0,-7.170603692E0,-2.002107982E0,7.676331025E0
1.202584792E0,2.050022698E0,-5.758897553E0,-8.964606053E-1,6.178279348E0
1.212528792E0,1.981238392E0,-3.908159659E0,8.608896536E-1,4.465439338E0
1.222472792E0,5.392898691E-1,-2.817750711E0,2.143997101E0,3.581518701E0
1.232416792E0,-1.655149700E0,-2.966454761E0,3.696847425E0,5.020563241E0
1.242360792E0,-2.917323824E0,-2.431752032E0,5.491229562E0,6.676660718E0
1.252304792E0,-5.059667040E0,-2.089289675E0,5.913327781E0,8.058089559E0
1.262248792E0,-4.583214859E0,6.994380891E-2,6.609151121E0,8.043110662E0
1.272192792E0,-2.702771940E0,1.589685443E0,9.313446845E0,9.827124102E0
1.282136792E0,-3.951482849E0,-1.375621802E-1,4.248571106E0,5.803748487E0
1.292080792E0,-8.178114032E0,-1.592079878E0,2.897030477E0,8.820944000E0
1.302024792E0,-1.274605538E1,-1.318944740E-1,3.672276548E0,1.326517768E1
1.311968792E0,-9.296776434E0,3.733502743E0,4.182606912E0,1.085648633E1
1.321912792E0,-2.825029618E0,6.095793069E0,3.272940955E0,7.473394675E0
1.331856792E0,2.229166768E0,6.331505442E0,3.162332100E0,7.420073446E0
1.341800792E0,4.885990702E0,6.112069963E0,3.849628446E-1,7.834443233E0
1.351744792E0,5.070748683E0,7.467959751E0,1.504698795E0,9.151340531E0
1.361688792E0,1.672327065E0,5.896751509E0,1.054980668E0,6.219432481E0
1.371632792E0,-1.461746610E0,2.516005440E0,2.372586688E0,3.754484535E0
1.381576792E0,-3.802953631E0,2.351089400E-1,3.374731624E0,5.089847352E0
1.391520792E0,-4.186139799E0,-4.372799295E-1,1.568729022E0,4.491758108E0
1.401464792E0,-3.808316697E0,-1.057710441E0,-1.513782152E0,4.232441830E0
1.411408792E0,-1.116750362E1,-5.777720910E0,-5.488527564E0,1.371929775E1
1.421352792E0,-1.188378286E1,-8.215926806E0,-2.154314514E0,1.460708114E1
1.431296792E0,-8.282922449E0,-8.615181708E0,-3.159457608E0,1.236164765E1
1.441240792E0,-4.516482341E0,-8.013087480E0,-3.549551092E0,9.859386221E0
1.451184792E0,5.293817621E-1,-5.243440350E0,-2.993533216E0,6.060953133E0
1.461128792E0,4.967651746E0,-2.337867091E0,-2.364446779E0,5.977775086E0
1.471072792E0,7.247558897E0,8.206169558E-1,-2.691110837E0,7.774483886E0
1.481016792E0,7.726931763E0,2.223440005E0,-4.224277094E0,9.082602980E0
1.490960792E0,7.214797533E0,4.195979494E-1,-3.766488348E0,8.149588968E0
1.500904792E0,6.252687898E0,-1.054843551E0,-4.083129694E0,7.541932708E0
1.510848792E0,5.295303399E0,-1.220611530E0,-4.742507339E0,7.212593601E0
1.520792792E0,3.953021836E0,-5.790316397E-1,-4.837570201E0,6.274053294E0
1.530736792E0,2.720027658E0,6.176390505E-1,-4.367309052E0,5.182028253E0
1.540680792E0,1.738177239E0,2.909374534E0,-3.301447300E0,4.731307913E0
1.550624792E0,-4.765154482E0,8.712571762E0,-5.790653781E0,1.149553284E1
1.560568792E0,-2.241771610E0,5.775470316E0,-1.318789789E-1,6.196691810E0
1.570511792E0,-4.475394541E-1,2.076270264E0,-9.727164835E-2,2.126182388E0
1.580455792E0,-3.187263458E0,1.319305514E0,-9.066122487E-1,3.566673682E0
1.590399792E0,-1.720174831E-1,1.794346762E-1,2.605772479E0,2.617601389E0
1.600347542E0,1.350249563E0,2.401004741E0,2.508025745E0,3.725344385E0
1.610291542E0,1.353797069E0,4.943354226E0,2.126072754E0,5.548846985E0
1.620235542E0,1.990403318E0,7.066002851E0,6.148626463E-1,7.366692455E0
1.630179542E0,1.817412273E0,8.213838766E0,-1.318360311E0,8.515175192E0
1.640123542E0,2.209796112E0,9.537323284E0,-1.590597024E0,9.918353350E0
1.650067542E0,2.789822947E0,1.033214817E1,-1.678075463E0,1.083292828E1
1.660011542E0,3.478577004E0,9.509768865E0,-2.720990109E0,1.048522718E1
1.669955542E0,3.119462653E0,7.189743968E0,-4.445601808E0,9.010374077E0
1.679899542E0,1.457864644E0,3.798426132E0,-6.196516621E0,7.412842143E0
1.689843542E0,-1.072100438E0,-1.888143117E0,-8.368842605E0,8.645924493E0
1.699787542E0,-4.617129879E0,-6.223955850E0,-8.433395866E0,1.145328252E1
1.709731542E0,-6.569524541E0,-7.182184687E0,-4.290226670E0,1.063712717E1
1.719675542E0,-5.619416317E0,-5.862646455E0,3.309430504E-1,8.127606443E0
1.729619542E0,-2.957471099E0,-3.554321251E0,6.459133787E0,7.943566210E0
1.739563542E0,-1.784631321E0,-2.638966538E0,1.853064267E1,1.880249375E1
1.749507542E0,-1.220699823E0,-9.503771961E-2,2.059635404E1,2.063271528E1
1.759451542E0,-1.555465783E0,3.181410395E0,9.488552828E0,1.012785667E1
1.769395542E0,-2.668752547E0,5.895149372E0,1.282626514E0,6.596980904E0
1.779339542E0,-2.402254584E0,8.610526155E0,-6.144436641E0,1.084740012E1
1.789283542E0,-1.523753263E0,8.298428680E0,-1.175850860E1,1.447232763E1
1.799227542E0,-1.409194321E0,8.017222046E0,-1.457300972E1,1.669234227E1
1.809171542E0,1.950777322E-2,7.703727087E0,-1.401743653E1,1.599488413E1
1.819115542E0,2.246719086E0,5.131435765E0,-7.605164666E0,9.445523239E0
1.829059542E0,3.354554636E0,6.178565669E-1,2.132191719E0,4.022564490E0
1.839003542E0,1.525258044E0,-3.161194232E0,5.446999469E0,6.479920083E0
1.848947542E0,-3.206556053E-1,-5.385109615E0,5.572961358E0,7.756295757E0
1.858891542E0,-2.469952769E0,-7.547222852E0,6.289463376E0,1.013008337E1
1.868835542E0,-3.457466217E0,-6.560641451E0,5.830376256E0,9.433418054E0
1.878779542E0,-2.637443338E0,-4.251201183E0,3.298052115E0,5.992158761E0
1.888723542E0,-1.279589763E0,-2.234557316E0,7.986545214E-1,2.696005453E0
1.898667542E0,3.715010923E-1,-8.001633954E-1,-1.572405167E0,1.802978793E0
1.908611542E0,8.571936285E-1,-2.420788795E0,-1.668269098E0,3.062371808E0
1.918555542E0,7.883628371E-1,-6.397122311E0,1.622350913E-1,6.447558456E0
1.928499542E0,-3.904557189E-1,-9.800438633E0,2.884620931E0,1.022360460E1
1.938443542E0,-2.342627602E0,-1.107042698E1,6.129508699E0,1.286907667E1
1.948387542E0,-3.159407322E0,-1.092604870E1,6.270797895E0,1.298781356E1
1.958331542E0,-4.081230810E0,-1.089035495E1,4.266488729E0,1.238786511E1
1.968275542E0,-4.992965512E0,-1.273600986E1,2.979336469E0,1.400043205E1
1.978219542E0,-4.183086383E0,-1.225803273E1,3.335985341E0,1.337484117E1
1.988163542E0,-1.955768067E0,-8.629756477E0,3.648730687E0,9.571361513E0
1.998107542E0,-9.723653582E-1,-6.624384872E0,3.855747557E-1,6.706462348E0
2.008051542E0,-4.158934459E-1,-7.095406160E0,-4.309091542E0,8.311800397E0
2.017994542E0,-5.638011047E-1,-8.788469206E0,-6.706782081E0,1.106959749E1
2.027938542E0,-1.439794116E0,-1.003787769E1,-6.150605453E0,1.186009878E1
2.037882542E0,-2.181137154E0,-1.053183643E1,-4.048080021E0,1.149190540E1
2.047826542E0,-1.430938216E0,-9.655088546E0,-2.141918124E0,9.992804024E0
2.057770542E0,5.210105374E0,-8.924870714E0,-3.036081943E0,1.077108671E1
2.067714542E0,7.918665618E-1,-6.339733059E0,-2.854764171E-1,6.395370567E0
2.077658542E0,-3.937420588E0,-3.873963972E0,4.499173705E-1,5.541958443E0
2.087602542E0,-4.949965673E0,-2.894567045E0,-1.072656655E0,5.833632731E0
2.097546542E0,-4.097742763E0,-1.089316980E0,-2.245084058E0,4.797760901E0
2.107490542E0,-2.323787581E0,2.120568185E0,-3.406681102E0,4.637054483E0
2.117434542E0,-1.503273244E0,5.527734899E0,-4.439441766E0,7.247366884E0
2.127378542E0,1.185734058E0,8.148486190E0,-5.156994529E0,9.715883132E0
2.137322542E0,2.010365127E0,1.019625303E1,-5.339488469E0,1.168397539E1
2.147266542E0,8.093696903E-1,1.071350475E1,-5.544988863E0,1.209054030E1
2.157210542E0,6.480205983E-2,8.550135527E0,-5.401063743E0,1.011338254E1
2.167154542E0,-1.172894157E0,5.784052860E0,-4.129314219E0,7.202928856E0
2.177098542E0,-2.167176341E0,3.665977927E0,-2.344114841E0,4.861164659E0
2.187042542E0,-2.030844123E0,2.960231861E0,-1.905176641E0,4.064111042E0
2.196986542E0,-1.756757644E0,3.954667243E0,-3.492358307E0,5.560769458E0
2.206930542E0,-1.291026332E0,5.586017021E0,-4.999531351E0,7.606947408E0
2.216874542E0,-8.007753065E-1,6.770881013E0,-5.558158547E0,8.796544618E0
2.226818542E0,-7.895919219E-1,7.592628821E0,-6.000663548E0,9.709759566E0
2.236762542E0,-9.563486651E-1,7.985633633E0,-6.758108940E0,1.050509323E1
2.246706542E0,-1.261613814E0,8.497666122E0,-7.468375488E0,1.138326102E1
2.256650542E0,-5.224917687E-1,6.896251749E0,-8.117308837E0,1.066405123E1
2.266594542E0,-2.757610929E0,5.154111852E0,-8.655601171E0,1.044455450E1
2.276538542E0,-3.032737628E0,3.211492565E0,-9.790259800E0,1.074059444E1
2.286482542E0,-4.054580371E0,1.013662781E0,-9.962860250E0,1.080396772E1
2.296426542E0,-3.610037615E0,-8.303016990E-1,-8.559308639E0,9.326496494E0
2.306370542E0,-2.291585356E0,-2.962303530E0,-6.233894362E0,7.272416694E0
2.316314542E0,-5.328792011E-1,-3.920245854E0,-4.454155700E0,5.957498703E0
2.326258542E0,1.577606265E0,-4.200665452E0,-3.416811696E0,5.639949817E0
2.336202542E0,2.821486497E0,-5.121244653E0,-2.666349926E0,6.426301796E0
2.346146542E0,3.546680402E0,-5.401189458E0,-1.693379088E0,6.679769619E0
2.356090542E0,3.854567296E0,-4.428508642E0,6.958563772E-1,5.912156454E0
2.366034542E0,3.830034718E0,-2.766171545E0,5.318414519E0,7.113817818E0
2.375978542E0,2.210997714E0,-1.252355479E0,1.059503314E1,1.089548679E1
2.385922542E0,1.556671479E0,2.136327016E-1,1.444400144E1,1.452921342E1
2.395866542E0,5.222361138E0,9.114283079E-1,1.736821854E1,1.815926135E1
2.405810542E0,5.512898759E0,-1.778306680E0,1.799713804E1,1.890638530E1
2.415754542E0,5.019978479E0,-3.702098517E0,1.430938333E1,1.560974595E1
2.425698542E0,4.030157720E0,-4.325532158E0,1.124739880E1,1.270654869E1
2.435641542E0,2.610752553E0,-3.755565457E0,7.879556955E0,9.110857183E0
2.445585542E0,1.782722058E0,-1.778579160E0,3.918347847E0,4.657777541E0
2.455529542E0,1.526327353E0,4.241388971E-1,9.408219686E-1,1.842475229E0
2.465473542E0,6.544769476E-1,1.879036079E0,-3.322931725E-1,2.017308953E0
2.475417542E0,-1.616502236E0,2.416728489E0,-6.428744638E-1,2.977741366E0
2.485361542E0,-5.400088427E0,1.823327901E0,-1.208028907E0,5.826217769E0
2.495305542E0,-9.039161561E0,-1.004318930E0,-4.696857834E0,1.023599393E1
2.505249542E0,-9.587865447E0,-5.978774496E0,-8.446363821E0,1.410723113E1
2.515193542E0,-8.309262986E0,-9.136278550E0,-9.548056433E0,1.561027927E1
2.525137542E0,-5.950719556E0,-9.719735363E0,-8.177638654E0,1.402704861E1
2.535081542E0,-2.973821668E0,-8.305029017E0,-5.552248181E0,1.042327118E1
2.545025542E0,-6.226954302E-1,-5.389709619E0,-2.697343969E0,6.059074506E0
2.554969542E0,2.284938095E0,-2.238710008E0,1.618105835E-1,3.202959142E0
2.564913542E0,3.961553509E0,5.548305988E-2,-1.782356754E0,4.344396410E0
2.574857542E0,3.751762135E0,-5.543160439E-4,-6.439837976E0,7.453001582E0
2.584801542E0,3.250288549E0,-7.465847737E-1,-8.871114922E0,9.477259331E0
2.594742208E0,3.059574009E0,-5.876609606E-1,-9.230289499E0,9.741898313E0
2.604686208E0,3.095069532E0,-1.674736118E-1,-8.819371156E0,9.348198244E0
2.614630208E0,3.065132957E0,1.157818866E-1,-8.211844865E0,8.766004881E0
2.624574208E0,3.086769701E0,3.595569849E-1,-7.584274904E0,8.196258550E0
2.634518208E0,3.112146032E0,4.240242916E-1,-7.046620501E0,7.714927738E0
2.644462208E0,3.127006146E0,5.223352826E-1,-6.482561826E0,7.216273929E0
2.654406208E0,3.055962476E0,5.626921803E-1,-6.133621631E0,6.875815839E0
2.664350208E0,2.800717187E0,5.331912231E-1,-5.587772355E0,6.273078155E0
2.674294208E0,1.881469983E0,6.707148117E-1,-3.494053122E0,4.024698110E0
2.684238208E0,6.901018399E-1,8.418680763E-1,-1.764379489E0,2.073166030E0
2.694182208E0,3.499807075E-1,6.995556182E-1,-2.393028262E0,2.517627618E0
2.704126208E0,5.196920487E-1,6.338954794E-1,-2.912282939E0,3.025441327E0
2.714070208E0,8.865805650E-1,7.652637041E-1,-2.718769922E0,2.960297877E0
2.724014208E0,1.076067774E0,1.015003547E0,-2.127619343E0,2.591315906E0
2.733958208E0,7.654028678E-1,1.505424142E0,-1.313022680E0,2.139198905E0
2.743902208E0,1.529897663E-1,1.954672737E0,-4.219105232E-1,2.005532315E0
2.753846208E0,-4.171722320E-1,2.434973556E0,4.033690023E-1,2.503165085E0
2.763790208E0,-9.719385114E-1,2.711978381E0,1.104330949E0,3.085293836E0
2.773734208E0,-1.131701400E0,2.491641262E0,1.242840890E0,3.005607711E0
2.783678208E0,-9.392856127E-1,2.203541345E0,1.001096018E0,2.596159694E0
2.793622208E0,-6.304029375E-1,1.888490442E0,6.737558024E-1,2.101844641E0
2.803566208E0,-5.666516224E-1,1.535647230E0,5.611314122E-1,1.730368440E0
2.813510208E0,-1.256142136E0,1.237325211E0,8.465237756E-1,1.955880683E0
2.823454208E0,-3.291782438E0,6.990977812E-1,1.752129572E0,3.794012040E0
2.833397208E0,-6.215914174E0,-7.594965953E-1,3.295062726E0,7.076147431E0
2.843342208E0,-7.682598758E0,-2.691216087E0,4.697066287E0,9.398265766E0
2.853285208E0,-7.293500471E0,-3.307260017E0,5.299853702E0,9.603206090E0
2.863229208E0,-6.699895231E0,-1.818923779E0,5.635711922E0,8.941942109E0
2.873173208E0,-5.341885242E0,8.489607489E-1,5.518432564E0,7.727196792E0
2.883117208E0,-3.694494798E0,2.811306787E0,4.920347772E0,6.764803017E0
2.893061208E0,-2.489455572E0,3.740215931E0,4.253024637E0,6.186664919E0
2.903005208E0,-2.022628493E0,3.819453889E0,3.911967073E0,5.829471710E0
2.912949208E0,-2.129414730E0,2.751766344E0,3.323419383E0,4.811625661E0
2.922893208E0,-2.543071324E0,1.295499744E0,2.059261006E0,3.519387339E0
2.932837208E0,-3.062524222E0,2.242185009E-1,1.214324019E0,3.302107110E0
2.942781208E0,-4.352872569E0,-6.427429014E-1,8.648080190E-1,4.484251437E0
2.952725208E0,-5.977233170E0,-1.477189107E0,5.909111354E-1,6.185352051E0
2.962669208E0,-6.867748911E0,-2.281788785E0,5.436574468E-1,7.257279007E0
2.972613208E0,-7.505376669E0,-2.661533282E0,8.100250170E-1,8.004409964E0
2.982557208E0,-8.605293481E0,-3.018898146E0,1.453290806E0,9.234547963E0
2.992501208E0,-9.689610507E0,-3.244158036E0,2.379566802E0,1.049168487E1
3.002445208E0,-9.513675975E0,-2.908021488E0,3.382330957E0,1.050746317E1
3.012389208E0,-8.611510241E0,-2.386028268E0,4.249526833E0,9.894933948E0
3.022333208E0,-7.532773798E0,-1.839663852E0,4.742197436E0,9.089305843E0
3.032277208E0,-5.909615384E0,-7.770908672E-1,4.580083675E0,7.516953550E0
3.042221208E0,-4.525531199E0,1.611673898E-1,4.029752801E0,6.061791418E0
3.052165208E0,-3.522358031E0,6.389708626E-1,3.983382919E0,5.355616616E0
3.062109208E0,-2.191260146E0,6.412688184E-1,4.734109275E0,5.255914512E0
3.072053208E0,-8.972458863E-1,-1.215881717E-1,4.684108565E0,4.770818264E0
3.081997208E0,-7.578342319E-2,-1.665564761E0,3.622417924E0,3.987701182E0
3.091941208E0,2.457920954E-1,-2.810653653E0,1.197546018E0,3.065012916E0
3.101885208E0,-2.187534007E-1,-3.344940060E0,-1.448889168E0,3.651815559E0
3.111829208E0,-7.903111294E-1,-4.357636296E0,-3.388691266E0,5.576451763E0
3.121773208E0,-1.827168645E0,-6.271211877E0,-4.690984890E0,8.041889263E0
3.131717208E0,-3.241946619E0,-9.807733619E0,-4.737541299E0,1.136424895E1
3.141661208E0,-5.048162643E0,-1.410552600E1,-3.168046876E0,1.531294651E1
3.151605208E0,-5.351852406E0,-1.501922361E1,-2.442909689E0,1.613031958E1
3.161549208E0,-3.787271399E0,-1.267910008E1,-1.576212581E0,1.332619412E1
3.171493208E0,-1.070932750E0,-8.717037281E0,2.619213474E-1,8.786480450E0
3.181437208E0,1.430830042E0,-4.885208929E0,1.248590457E0,5.241327983E0
3.191381208E0,2.686440666E0,-2.034105992E0,5.097164065E-2,3.370036906E0
3.201324208E0,2.893290598E0,-3.631787503E-1,-2.054173929E0,3.566883768E0
3.211268208E0,2.713212143E0,6.914075232E-1,-3.284885647E0,4.316252797E0
3.221212208E0,2.425049661E0,1.542897778E0,-4.084820416E0,4.994712929E0
3.231156208E0,2.085405954E0,2.259271742E0,-4.781167082E0,5.684433610E0
3.241100208E0,1.810167573E0,2.872032461E0,-5.243726864E0,6.246755039E0
3.251044208E0,1.639706619E0,3.295687793E0,-5.577117559E0,6.682397481E0
3.260988208E0,1.407973861E0,3.680060946E0,-5.714629453E0,6.941341999E0
3.270932208E0,1.125279695E0,4.145766529E0,-5.822328148E0,7.235546944E0
3.280876208E0,7.874328375E-1,4.643838791E0,-6.069709809E0,7.682881384E0
3.290820208E0,3.900955305E-1,5.048094231E0,-6.614683172E0,8.330033815E0
3.300764208E0,4.235752255E-2,5.344695999E0,-7.505888300E0,9.214441310E0
3.310708208E0,-1.062190577E-1,5.416634293E0,-8.586744944E0,1.015299947E1
3.320652208E0,3.887024313E-2,5.366427176E0,-9.446206123E0,1.086420092E1
3.330596208E0,4.004959729E-1,5.269142371E0,-1.005131576E1,1.135575655E1
3.340540208E0,9.010571015E-1,5.207147267E0,-1.061870735E1,1.186099626E1
3.350484208E0,1.507725606E0,5.209121287E0,-1.102866733E1,1.228982035E1
3.360428208E0,2.235427966E0,5.307222948E0,-1.102525723E1,1.243865148E1
3.370372208E0,2.999819558E0,5.385850457E0,-1.047708661E1,1.215630069E1
3.380316208E0,3.704640301E0,5.182049264E0,-9.690969400E0,1.159710663E1
3.390260208E0,4.478017017E0,4.508886223E0,-8.709002622E0,1.078097482E1
3.400204208E0,5.553375524E0,3.459872931E0,-7.499710132E0,9.952705786E0
3.410148208E0,9.049878337E0,1.967238988E0,-4.718892774E0,1.039414625E1
3.420092208E0,1.206286085E1,-2.890302086E-1,-7.671745741E-1,1.209068680E1
3.430036208E0,1.084590676E1,-3.278397576E0,1.951186042E0,1.149733495E1
3.439980208E0,7.343499427E0,-8.339246339E0,7.420953400E0,1.336190715E1
3.449924208E0,-5.592271203E-1,-1.470343304E1,2.216301724E1,2.660268804E1
3.459868208E0,-8.240029614E0,-1.813444937E1,2.606093257E1,3.280134980E1
3.469812208E0,-1.150696372E1,-1.652901680E1,1.843541726E1,2.730353860E1
3.479756208E0,-1.162064880E1,-1.210401473E1,1.122500046E1,2.018780043E1
3.489700208E0,-7.921405478E0,-5.089331719E0,6.832915294E0,1.163351596E1
3.499644208E0,-4.447983963E0,9.553888446E-1,3.604455278E0,5.804259387E0
3.509588208E0,-2.356526726E0,5.044011705E0,1.404927462E0,5.741871948E0
3.519532208E0,-1.429624346E0,7.475313794E0,3.263351521E-1,7.617784240E0
3.529476208E0,-1.358363745E0,7.890586558E0,-4.103970632E-1,8.017164963E0
3.539420208E0,-1.673345650E0,6.323606438E0,-1.558288526E0,6.724310164E0
3.549364208E0,-1.939022080E0,3.576610837E0,-3.720669858E0,5.513196523E0
3.559307208E0,-2.195033062E0,-1.970447356E-1,-6.472183018E0,6.837115605E0
3.569251208E0,-2.995954256E0,-4.907349411E0,-8.285118663E0,1.008469193E1
3.579195208E0,-4.915596324E0,-1.077053615E1,-7.769270282E0,1.416082967E1
3.589139208E0,-4.339818075E0,-1.223848782E1,-6.898664895E0,1.470395125E1
3.599086667E0,-8.425101006E-1,-8.984941499E0,-4.953366998E0,1.029440827E1
3.609030667E0,2.748245151E0,-5.379868171E0,-9.423498461E-1,6.114233899E0
3.618974667E0,5.668016619E0,-1.981013859E0,1.601428114E0,6.214129087E0
3.628918667E0,6.111626160E0,-5.570151186E-1,-8.670982271E-2,6.137569450E0
3.638862667E0,4.146602097E0,-1.359390516E0,-3.576012959E0,5.641818874E0
3.648806667E0,2.708748379E0,-2.772998169E0,-5.926790410E0,7.081926376E0
3.658750667E0,2.660694791E0,-3.414389779E0,-6.673320805E0,7.954279659E0
3.668694667E0,3.165798329E0,-3.545556275E0,-6.678148266E0,8.197006321E0
3.678638667E0,3.543382280E0,-3.430197726E0,-6.667501071E0,8.293213187E0
3.688582667E0,3.800487276E0,-2.877689057E0,-6.913819124E0,8.397957651E0
3.698526667E0,3.617947143E0,-2.373310574E0,-7.231978991E0,8.427553900E0
3.708470667E0,2.194486347E0,-2.049205257E0,-6.677140206E0,7.321148397E0
3.718414667E0,-2.850531664E0,-1.204606531E0,-3.234765361E0,4.476640995E0
3.728358667E0,4.067820221E0,1.192077702E-1,-5.077420356E0,6.507039981E0
3.738302667E0,4.756614039E0,5.003462434E-2,-5.210000709E0,7.054926503E0
3.748246667E0,2.866737222E0,-5.632003033E-1,-4.452682201E0,5.325575618E0
3.758190667E0,1.974600048E0,-6.169631124E-1,-3.938373976E0,4.448649054E0
3.768134667E0,1.449090312E0,-1.124261695E-1,-3.244686624E0,3.555347193E0
3.778078667E0,1.524859702E0,5.596621531E-1,-2.380935343E0,2.882233846E0
3.788022667E0,1.790756571E0,1.470378270E0,-1.547256292E0,2.786184378E0
3.797966667E0,1.966188244E0,2.278585680E0,-9.980471333E-1,3.170795955E0
3.807910667E0,2.014510803E0,2.659753974E0,-6.666504121E-1,3.402494343E0
3.817854667E0,1.922314830E0,2.738885513E0,-4.794016631E-1,3.380327516E0
3.827798667E0,1.290284613E0,2.466390646E0,-4.075602865E-1,2.813187265E0
3.837742667E0,2.918918359E-1,2.088129002E0,-3.822229855E-1,2.142796767E0
3.847686667E0,-1.113469489E0,1.693945391E0,-2.340299825E-1,2.040596806E0
3.857630667E0,-2.741440161E0,1.127574143E0,7.769531652E-2,2.965291582E0
3.867574667E0,-4.484299850E0,4.866982573E-1,8.140883933E-1,4.583509600E0
3.877518667E0,-6.210627122E0,-1.035933656E-1,1.792413672E0,6.464933689E0
3.887462667E0,-6.906512443E0,-7.971362919E-1,2.881534771E0,7.525860949E0
3.897406667E0,-6.688108413E0,-7.686188364E-1,3.921484294E0,7.790995323E0
3.907350667E0,-6.256427777E0,5.133446038E-2,4.756424589E0,7.859331946E0
3.917294667E0,-5.405117617E0,1.463105503E0,5.111958690E0,7.582090465E0
3.927237667E0,-4.271804140E0,2.932391514E0,4.945932848E0,7.163063754E0
3.937181667E0,-3.551831506E0,4.082313130E0,4.765045724E0,7.210162848E0
3.947125667E0,-3.422194642E0,4.627522135E0,4.745162267E0,7.459352668E0
3.957069667E0,-2.871626664E0,3.777311252E0,4.792904783E0,6.744349950E0
3.967013667E0,-1.832082060E0,2.413592627E0,4.590457512E0,5.500386734E0
3.976957667E0,-1.618324521E0,9.331372654E-1,4.039279962E0,4.450337293E0
3.986901667E0,-2.212777022E0,-3.686055511E-1,3.157673915E0,3.873390860E0
3.996845667E0,-3.337608236E0,-1.364479932E0,2.119948673E0,4.182776183E0
4.006789667E0,-4.505679902E0,-2.213573413E0,1.153924035E0,5.150980423E0
4.016733667E0,-5.114915042E0,-2.937031864E0,5.576743922E-1,5.924484179E0
4.026677667E0,-5.198363580E0,-3.532402378E0,2.838636088E-1,6.291377355E0
4.036621667E0,-5.131606504E0,-3.815261436E0,2.741072372E-1,6.400370295E0
4.046565667E0,-4.959115396E0,-3.628008447E0,7.804503849E-1,6.193898095E0
4.056509667E0,-4.595207790E0,-2.995789365E0,1.842325505E0,5.786609700E0
4.066453667E0,-4.544829642E0,-2.146177236E0,2.734921101E0,5.722005473E0
4.076397667E0,-4.915999782E0,-1.366229419E0,3.026812352E0,5.932556759E0
4.086341667E0,-5.689421521E0,-9.979308468E-1,3.015539505E0,6.516046480E0
4.096285667E0,-6.036732098E0,-5.185082799E-1,3.095381480E0,6.803849775E0
4.106229667E0,-6.056553574E0,2.945359468E-1,3.557026173E0,7.030009091E0
4.116173667E0,-5.801587490E0,1.067546627E0,4.056569009E0,7.159177699E0
4.126117667E0,-4.796037721E0,1.467431273E0,4.634483246E0,6.828892100E0
4.136061667E0,-3.335907281E0,9.358883804E-1,4.993618062E0,6.077860297E0
4.146005667E0,-2.184422704E0,-5.017548376E-1,4.659005299E0,5.170086154E0
4.155949667E0,-1.521164262E0,-2.519813147E0,4.065042794E0,5.018761991E0
4.165893667E0,-1.316170236E0,-4.593312415E0,3.297168308E0,5.805354588E0
4.175837667E0,-1.608388932E0,-5.649262260E0,1.412893124E0,6.041303337E0
4.185781667E0,-2.736174159E0,-5.946244097E0,-1.268906023E0,6.667427569E0
4.195725667E0,-3.796731024E0,-6.999326466E0,-2.845761505E0,8.456009461E0
4.205669667E0,-4.307910404E0,-8.920820348E0,-2.937570977E0,1.033288203E1
4.215613667E0,-3.839832605E0,-1.037211506E1,-2.329665202E0,1.130276184E1
4.225557667E0,-2.028713690E0,-9.861081276E0,-1.460464316E0,1.017298182E1
4.235501667E0,-2.452906966E-1,-8.383519117E0,-6.475943363E-1,8.412071013E0
4.245445667E0,9.949458432E-1,-6.343907386E0,-4.575744456E-1,6.437736600E0
4.255389667E0,1.899691368E0,-4.460091208E0,-9.956077480E-1,4.948987338E0
4.265332667E0,2.365644289E0,-2.757883117E0,-2.158376867E0,4.226201946E0
4.275276667E0,2.575901393E0,-1.454138213E0,-3.300514669E0,4.432063065E0
4.285220667E0,2.783276989E0,-4.394504160E-1,-3.898959065E0,4.810574733E0
4.295164667E0,2.899312645E0,5.601796317E-1,-3.941643155E0,4.925075207E0
4.305108667E0,2.892556772E0,1.459630503E0,-3.846848094E0,5.029477721E0
4.315052667E0,2.958801633E0,2.090642136E0,-3.814756236E0,5.260955881E0
4.324996667E0,3.014841932E0,2.578434992E0,-3.933970731E0,5.586924430E0
4.334940667E0,3.050704075E0,2.874853157E0,-4.320660550E0,6.019940500E0
4.344884667E0,3.138484231E0,3.126089303E0,-4.894545763E0,6.601446495E0
4.354828667E0,3.275241249E0,3.440443218E0,-5.375514334E0,7.173563210E0
4.364772667E0,3.392056339E0,3.757875107E0,-5.640696089E0,7.579256157E0
4.374716667E0,3.528290032E0,4.083665591E0,-5.723150015E0,7.866358834E0
4.384660667E0,3.734551148E0,4.359611485E0,-5.601443730E0,8.020552128E0
4.394604667E0,3.928890377E0,4.508668122E0,-5.524114888E0,8.141259922E0
4.404548667E0,4.037387218E0,4.453859830E0,-5.781511075E0,8.340457616E0
4.414492667E0,4.161828246E0,4.232685390E0,-6.291627431E0,8.649914201E0
4.424436667E0,4.359881626E0,4.038148525E0,-6.981566133E0,9.168286480E0
4.434380667E0,4.651325566E0,4.018469136E0,-7.727053970E0,9.873716968E0
4.444324667E0,5.057423463E0,4.194732283E0,-8.420377041E0,1.068063952E1
4.454268667E0,5.436844609E0,4.447898009E0,-8.701260908E0,1.118280007E1
4.464212667E0,5.761971434E0,4.609766480E0,-8.313961809E0,1.111630437E1
4.474156667E0,6.343099886E0,4.672713511E0,-7.745052869E0,1.104785100E1
4.484100667E0,7.326742476E0,4.629106731E0,-6.752820134E0,1.098682685E1
4.494044667E0,8.791840711E0,4.254215423E0,-4.778030636E0,1.087310391E1
4.503988667E0,8.462004538E0,2.936521402E0,1.407936439E-1,8.958152801E0
4.513932667E0,2.560738978E0,2.282900341E0,1.008524715E1,1.065275684E1
4.523876667E0,-6.249865447E0,-8.884984517E-1,2.497413399E1,2.575961211E1
4.533820667E0,-1.270186446E1,-7.912928184E0,2.774264559E1,3.152151928E1
4.543764667E0,-1.492803979E1,-1.264439803E1,2.082344586E1,2.857171803E1
4.553708667E0,-1.648554976E1,-1.416437940E1,1.597971065E1,2.697691878E1
4.563652667E0,-1.536757733E1,-1.068923880E1,1.105494004E1,2.174014624E1
4.573596667E0,-7.844084821E0,-3.597066151E0,7.633602015E0,1.152130337E1
4.583540667E0,-3.193873150E0,1.307215226E-1,3.393882717E0,4.662226261E0
4.593480583E0,-5.852068841E-2,1.893881575E0,-4.012885630E-1,1.936813001E0
4.603423583E0,2.041486933E0,2.493697143E0,-1.231373330E0,3.449996321E0
4.613367583E0,2.758745581E0,2.482274607E0,-7.816227517E-1,3.792531942E0
4.623311583E0,1.797459819E0,2.010074521E0,-2.170707183E0,3.461680380E0
4.633255583E0,-6.078613365E-1,1.042275546E0,-5.288039403E0,5.423946390E0
4.643199583E0,-3.799882674E0,-1.600950104E-1,-8.690558749E0,9.486334915E0
4.653143583E0,-6.572083867E0,-1.983766728E0,-1.119300917E1,1.313053964E1
4.663087583E0,-7.660185796E0,-4.705259698E0,-1.200052720E1,1.499435121E1
4.673031583E0,-4.588098453E0,-5.479858482E0,-8.741711361E0,1.129145756E1
4.682975583E0,-5.827949077E-1,-5.136321698E0,-3.470950481E0,6.226471532E0
4.692919583E0,3.122242420E0,-3.994064612E0,1.143573294E0,5.196990450E0
4.702863583E0,5.666824957E0,-2.700227816E0,3.374373482E0,7.126747627E0
4.712807583E0,6.012232849E0,-1.710845599E0,7.737658480E-1,6.298622872E0
4.722751583E0,4.045048240E0,-1.448726615E0,-2.630950005E0,5.038166531E0
4.732695583E0,2.090812290E0,-1.792975590E0,-4.501655264E0,5.277419598E0
4.742639583E0,1.778627107E0,-1.994840770E0,-5.352911922E0,5.983023494E0
4.752583583E0,1.949228979E0,-2.114527427E0,-6.038492110E0,6.688356062E0
4.762527583E0,1.826063229E0,-2.392894653E0,-6.889492952E0,7.518348547E0
4.772471583E0,1.148625873E0,-2.547809615E0,-7.348142701E0,7.861671348E0
4.782415583E0,5.096456552E-1,-2.524378653E0,-7.165651685E0,7.614380497E0
4.792359583E0,3.898841536E-1,-2.247808861E0,-6.478479300E0,6.868431289E0
4.802303583E0,5.515579122E-1,-1.528846334E0,-5.599942165E0,5.831032455E0
4.812247583E0,6.947304958E-1,-5.053660780E-1,-4.828594725E0,4.904423754E0
4.822191583E0,8.243199974E-1,5.419281328E-1,-3.992789919E0,4.112853134E0
4.832135583E0,1.303628544E0,1.670851813E0,-3.043200928E0,3.708404650E0
4.842079583E0,1.959317765E0,2.612594426E0,-1.952322303E0,3.804752043E0
4.852023583E0,2.650477951E0,3.359732931E0,-8.109211028E-1,4.355505914E0
4.861967583E0,3.169436467E0,3.758459244E0,6.148995569E-1,4.954739637E0
4.871911583E0,3.230374979E0,3.816614481E0,2.359519916E0,5.528942289E0
4.881855583E0,2.694731433E0,3.547331489E0,4.222206595E0,6.137765613E0
4.891799583E0,1.687780087E0,3.285022472E0,5.343064041E0,6.495252698E0
4.901743583E0,3.430538034E-1,3.202563282E0,4.242112856E0,5.326313826E0
4.911687583E0,-7.638539404E-1,3.237508582E0,2.497358669E0,4.159535429E0
4.921631583E0,-1.569797308E0,3.223400420E0,1.555730077E0,3.908307809E0
4.931575583E0,-2.393914407E0,2.762738060E0,1.213369607E0,3.851728648E0
4.941519583E0,-2.948960184E0,1.851504464E0,1.146285671E0,3.665843121E0
4.951463583E0,-3.361323666E0,8.433860135E-1,1.124021959E0,3.643243351E0
4.961406583E0,-4.478875096E0,-2.144296771E-1,1.395014677E0,4.695994907E0
4.971350583E0,-5.661906863E0,-1.396770011E0,2.174457733E0,6.223859110E0
4.981294583E0,-4.595225624E0,-1.678021084E0,3.631903278E0,6.092829779E0
4.991238583E0,-2.528536900E0,-6.425224614E-1,4.859943987E0,5.515921458E0
5.001182583E0,-7.231900638E-1,7.263113075E-1,4.953975109E0,5.058893294E0
5.011126583E0,3.529534319E-1,1.594978927E0,3.459147291E0,3.825471721E0
5.021070583E0,8.147948831E-1,1.818308651E0,1.624997071E0,2.571138373E0
5.031014583E0,1.360229591E0,1.512280587E0,4.253019083E-1,2.078003568E0
5.040958583E0,1.486114297E0,3.794030195E-1,-4.223641209E-1,1.590872027E0
5.050902583E0,9.117627686E-1,-1.390784217E0,-1.117508015E0,2.003600820E0
5.060846583E0,-3.548768735E-1,-3.189100653E0,-1.705725192E0,3.633978398E0
5.070790583E0,-1.953371147E0,-4.502581170E0,-1.640828407E0,5.175056898E0
5.080734583E0,-3.713287749E0,-4.998522121E0,-4.847561046E-1,6.245695941E0
5.090678583E0,-5.521916919E0,-4.205008764E0,1.288109741E0,7.059241594E0
5.100622583E0,-6.880717451E0,-2.464997254E0,2.888029858E0,7.858829465E0
5.110566583E0,-7.820595387E0,-4.310988379E-1,4.020925259E0,8.804282955E0
5.120510583E0,-8.705661523E0,1.265626320E0,4.779445954E0,1.001166600E1
5.130454583E0,-9.552031955E0,2.357672780E0,5.220991720E0,1.113816367E1
5.140398583E0,-1.021765384E1,2.546012181E0,5.128667693E0,1.171263678E1
5.150342583E0,-1.069777340E1,1.746806560E0,4.400213673E0,1.169852850E1
5.160286583E0,-1.121279147E1,1.013828257E0,3.364171260E0,1.175041228E1
5.170230583E0,-1.069506497E1,1.294798663E0,2.641029728E0,1.109215742E1
5.180174583E0,-8.274769092E0,2.539755076E0,2.933891032E0,9.139468034E0
5.190118583E0,-5.746835917E0,3.518961968E0,3.637232430E0,7.657589447E0
5.200062583E0,-3.692464352E0,3.847481348E0,4.266100473E0,6.829130176E0
5.210006583E0,-2.191632906E0,3.295791873E0,4.554867557E0,6.034261954E0
5.219950583E0,-1.170364067E0,2.032018536E0,4.619542440E0,5.180639317E0
5.229894583E0,-3.641014409E-1,2.023674560E-1,4.257357132E0,4.277687716E0
5.239838583E0,-3.572245306E-1,-2.110071264E0,2.797947069E0,3.522572626E0
5.249782583E0,-1.323645902E0,-4.154756039E0,-3.514644384E-1,4.374650096E0
5.259726583E0,-2.799450388E0,-5.354202987E0,-3.726397791E0,7.098623289E0
5.269670583E0,-4.768163459E0,-7.266736010E0,-5.741968110E0,1.041686291E1
5.279614583E0,-6.589736611E0,-1.049645727E1,-6.344002111E0,1.392288069E1
5.289558583E0,-7.613295220E0,-1.419307987E1,-4.882925299E0,1.682999524E1
5.299502583E0,-6.346284279E0,-1.509236059E1,-2.477311490E0,1.655873620E1
5.309445583E0,-4.508061181E0,-1.370907309E1,-2.388689920E-1,1.443323799E1
5.319389583E0,-2.313134539E0,-1.075752960E1,1.841973795E0,1.115651836E1
5.329333583E0,-9.479856849E-2,-6.965775143E0,1.472960693E0,7.120437017E0
5.339277583E0,1.429551841E0,-3.901197964E0,-1.349312547E0,4.368478954E0
5.349221583E0,2.128556067E0,-1.906774101E0,-4.036217190E0,4.945461314E0
5.359165583E0,2.492034779E0,-6.255386388E-1,-5.749743152E0,6.297704522E0
5.369109583E0,2.974494390E0,3.175517571E-1,-6.215891955E0,6.898243892E0
5.379053583E0,3.446953508E0,1.270479509E0,-5.837357247E0,6.897125944E0
5.388997583E0,3.652821692E0,2.401645011E0,-5.317712853E0,6.883972331E0
5.398941583E0,3.499660310E0,3.079848352E0,-5.101036091E0,6.910402112E0
5.408885583E0,3.076510177E0,3.352226275E0,-5.177614735E0,6.892752006E0
5.418829583E0,2.572263840E0,3.533009319E0,-5.257987638E0,6.837041035E0
5.428773583E0,2.124582299E0,3.817781001E0,-5.605328620E0,7.106969161E0
5.438717583E0,2.176106209E0,4.945792515E0,-5.873340427E0,7.980753700E0
5.448661583E0,2.276119909E0,6.016404253E0,-6.093686902E0,8.860635532E0
5.458605583E0,2.407635484E0,6.492808487E0,-6.291891140E0,9.356343559E0
5.468549583E0,2.511815325E0,6.633352162E0,-6.354429451E0,9.523095651E0
5.478493583E0,2.377115942E0,6.498553376E0,-6.861327499E0,9.744726329E0
5.488437583E0,2.110390522E0,6.147973037E0,-8.098991849E0,1.038484423E1
5.498381583E0,1.921947625E0,5.787611475E0,-9.743928217E0,1.149497570E1
5.508325583E0,1.814784242E0,5.548141682E0,-1.148543661E1,1.288373285E1
5.518269583E0,1.894734099E0,5.427254591E0,-1.298998718E1,1.420510038E1
5.528213583E0,2.286745177E0,5.203952349E0,-1.391860923E1,1.503456040E1
5.538157583E0,2.964927760E0,4.774445708E0,-1.363708684E1,1.474978868E1
5.548101583E0,3.748156450E0,4.251435072E0,-1.273662967E1,1.394077158E1
5.558045583E0,4.578721858E0,3.548371709E0,-1.139132217E1,1.277958749E1
5.567989583E0,6.181727843E0,2.096475318E0,-9.323988791E0,1.138181597E1
5.577933583E0,9.162983369E0,-2.289118854E0,-4.295696448E0,1.037561262E1
5.587877583E0,7.680409561E0,-1.195634564E1,1.081446862E1,1.785764888E1
5.597825833E0,-2.206285443E0,-1.925323457E1,3.474908110E1,3.978760327E1
5.607769833E0,-9.564154403E0,-1.912272939E1,3.827876920E1,4.384536464E1
5.617713833E0,-9.397885317E0,-1.554466026E1,2.279965506E1,2.915100310E1
5.627657833E0,-5.985367232E0,-9.541931475E0,1.285136958E1,1.708890802E1
5.637600833E0,-2.539754491E0,-2.791202306E0,7.415470465E0,8.320478677E0
5.647545833E0,-5.873159748E-1,2.001151670E0,2.835300252E0,3.519726634E0
5.657488833E0,4.237424558E-1,4.912337671E0,-8.766291887E-2,4.931359229E0
5.667432833E0,7.847150517E-1,5.559511008E0,-2.214309577E0,6.035487326E0
5.677376833E0,8.149141663E-1,4.458451649E0,-2.664513023E0,5.257518983E0
5.687320833E0,6.742716730E-2,2.950452393E0,-1.933723625E0,3.528314443E0
5.697264833E0,-1.974042808E0,1.239469970E0,-3.051946024E0,3.840248084E0
5.707208833E0,-4.645380117E0,-7.278748530E-1,-5.723200302E0,7.407049340E0
5.717152833E0,-7.313451755E0,-2.396543900E0,-8.201993476E0,1.124734174E1
5.727096833E0,-9.034334684E0,-3.515970533E0,-9.642717007E0,1.367345031E1
5.737040833E0,-8.368155558E0,-3.425379036E0,-8.640584936E0,1.250675645E1
5.746984833E0,-6.285212451E0,-2.982722592E0,-5.161115647E0,8.662427162E0
5.756928833E0,-4.094076558E0,-2.798806610E0,-1.050712493E-1,4.960425513E0
5.766872833E0,-5.186848658E-1,-2.174625109E0,4.267573387E0,4.817697684E0
5.776816833E0,1.976503317E0,-1.599541510E0,3.278665671E0,4.149065797E0
5.786760833E0,3.372204457E0,-1.156521369E0,-4.729432672E-2,3.565324856E0
5.796704833E0,3.794060016E0,-9.233800167E-1,-2.306604076E0,4.535189569E0
5.806648833E0,3.131331916E0,-9.792045540E-1,-4.030480487E0,5.197004337E0
5.816592833E0,2.878107133E0,-1.130962020E0,-4.869955298E0,5.768798866E0
5.826536833E0,3.100531708E0,-1.307078401E0,-5.389211437E0,6.353373177E0
5.836480833E0,3.154606758E0,-1.513819574E0,-5.939895190E0,6.893877601E0
5.846424833E0,2.753762584E0,-2.033286797E0,-6.504601736E0,7.350327021E0
5.856368833E0,1.995435432E0,-2.591507612E0,-6.938620673E0,7.670862475E0
5.866312833E0,1.712201568E0,-2.569954775E0,-6.831017872E0,7.496606360E0
5.876256833E0,1.882433311E0,-2.010703096E0,-6.244315855E0,6.824804950E0
5.886200833E0,2.041145455E0,-1.167687796E0,-5.456003011E0,5.941189984E0
5.896144833E0,2.219115404E0,-1.407834113E-1,-4.600651548E0,5.109822679E0
5.906088833E0,2.319635473E0,8.577239710E-1,-3.478770547E0,4.268283455E0
5.916032833E0,2.443064348E0,1.751146363E0,-2.604463288E0,3.977223405E0
5.925976833E0,2.562018934E0,2.304733844E0,-1.977324851E0,3.973103657E0
5.935920833E0,2.638354334E0,2.639287550E0,-1.404042778E0,3.987240711E0
5.945864833E0,2.542343638E0,3.071151204E0,-5.999839675E-1,4.031806251E0
5.955808833E0,2.086249123E0,3.426821544E0,6.142301238E-1,4.058672190E0
5.965752833E0,1.305726525E0,3.442926530E0,1.697580167E0,4.054681649E0
5.975695833E0,4.026129574E-1,3.509771315E0,2.295328013E0,4.212970753E0
5.985639833E0,-4.536679208E-1,3.479413156E0,2.019345281E0,4.048442399E0
5.995583833E0,-1.103697038E0,3.095090289E0,1.300137610E0,3.533849014E0
6.005527833E0,-1.608729240E0,2.379241405E0,1.064365303E0,3.062951669E0
6.015471833E0,-1.981701491E0,1.354155504E0,1.350696437E0,2.754134854E0
6.025415833E0,-1.998143862E0,8.004370451E-2,2.166315047E0,2.948203990E0
6.035359833E0,-1.784678391E0,-1.360252980E0,3.202955046E0,3.910790988E0
6.045303833E0,-1.392514408E0,-2.646103064E0,4.520351443E0,5.419827947E0
6.055247833E0,-8.411523771E-1,-3.360781336E0,5.825283916E0,6.777633895E0
6.065191833E0,-2.135587344E-1,-2.954048431E0,5.583547157E0,6.320443681E0
6.075135833E0,3.555528116E-1,-1.395728037E0,3.001393336E0,3.329089442E0
6.085079833E0,8.709187979E-1,4.123433089E-1,4.920081139E-2,9.648560912E-1
6.095023833E0,1.075536262E0,1.497928011E0,-1.724866783E0,2.525021188E0
6.104967833E0,4.095977488E-1,1.546853419E0,-2.314961793E0,2.814173755E0
6.114911833E0,-1.067720874E0,7.239548796E-1,-1.694428371E0,2.129607015E0
6.124855833E0,-2.696810119E0,-4.416133010E-1,-2.729491961E-1,2.746326344E0
6.134799833E0,-3.686641402E0,-1.174429636E0,8.013781545E-1,3.951305701E0
6.144743833E0,-4.340047871E0,-1.268033034E0,1.263810174E0,4.694799192E0
6.154687833E0,-5.078828366E0,-1.014007766E0,1.393666309E0,5.363302630E0
6.164631833E0,-6.152261969E0,-8.671701479E-1,1.527456450E0,6.398080541E0
6.174575833E0,-7.431123462E0,-6.701885623E-1,1.709509656E0,7.654617683E0
6.184519833E0,-8.678378999E0,-5.223469770E-1,1.823795532E0,8.883317993E0
6.194463833E0,-1.004271684E1,-5.237158102E-1,2.016568731E0,1.025655836E1
6.204407833E0,-1.156952776E1,-5.471450186E-1,2.224475254E0,1.179413543E1
6.214351833E0,-1.201936108E1,-6.347778243E-1,2.853454102E0,1.236972853E1
6.224295833E0,-1.090631785E1,-3.772494900E-1,3.649772369E0,1.150699459E1
6.234239833E0,-8.783067548E0,4.303585804E-1,4.034819705E0,9.675084192E0
6.244183833E0,-6.595245858E0,1.219080144E0,3.465449420E0,7.549355205E0
6.254127833E0,-4.840963341E0,1.536856434E0,2.411854981E0,5.622623784E0
6.264071833E0,-3.564226434E0,1.377723291E0,2.044084851E0,4.333602937E0
6.274015833E0,-2.476173914E0,6.629339218E-1,2.341880035E0,3.472077295E0
6.283959833E0,-1.696460279E0,-6.360256201E-1,2.386419446E0,2.996248294E0
6.293903833E0,-1.164834940E0,-2.219817070E0,1.764888489E0,3.065821202E0
6.303847833E0,-8.437678367E-1,-3.629718758E0,2.173409327E-1,3.732832638E0
6.313790833E0,-8.528444695E-1,-4.864588723E0,-1.571104161E0,5.182657178E0
6.323734833E0,-1.374372836E0,-5.829025549E0,-3.395579871E0,6.884504500E0
6.333678833E0,-1.867393103E0,-7.275264174E0,-4.668966030E0,8.843973632E0
6.343622833E0,-1.838647022E0,-9.602710358E0,-4.630322952E0,1.081815880E1
6.353566833E0,-1.762761857E0,-1.165913283E1,-3.900230542E0,1.241992375E1
6.363510833E0,-1.193380462E0,-1.201570891E1,-2.926424138E0,1.242438633E1
6.373454833E0,-1.727717739E-1,-1.089930353E1,-1.198729495E0,1.096638591E1
6.383398833E0,1.288080212E0,-8.487935185E0,6.002254575E-1,8.606071400E0
6.393342833E0,2.797728968E0,-5.582305208E0,7.818972784E-1,6.292915236E0
6.403286833E0,3.706358213E0,-3.112478739E0,-9.791548526E-1,4.937950924E0
6.413230833E0,4.016815544E0,-1.159605775E0,-2.689489989E0,4.971201974E0
6.423174833E0,3.842593076E0,3.077132320E-1,-3.733814399E0,5.366710254E0
6.433118833E0,3.651876782E0,1.262975192E0,-4.363584083E0,5.828565554E0
6.443062833E0,3.614303159E0,1.938501093E0,-4.330047670E0,5.964083051E0
6.453006833E0,3.526625914E0,2.510612553E0,-4.118629894E0,5.975230366E0
6.462950833E0,3.365920454E0,3.018468375E0,-3.986833361E0,6.027886204E0
6.472894833E0,3.230626409E0,3.326372811E0,-3.807247534E0,5.999736399E0
6.482838833E0,3.090246456E0,3.590962243E0,-3.813512826E0,6.081736024E0
6.492782833E0,2.822860885E0,3.913604001E0,-4.098844963E0,6.331300805E0
6.502726833E0,2.482652337E0,4.195808170E0,-4.559485396E0,6.675123662E0
6.512670833E0,2.206537458E0,4.348029320E0,-5.090795277E0,7.049139173E0
6.522614833E0,2.167494430E0,4.344389428E0,-5.533939964E0,7.361809773E0
6.532558833E0,2.407719099E0,4.115756280E0,-5.829148926E0,7.530971930E0
6.542502833E0,2.809769554E0,3.712451597E0,-6.005078781E0,7.598557295E0
6.552446833E0,3.279826051E0,3.310828573E0,-6.114075558E0,7.687702173E0
6.562390833E0,3.872547777E0,3.024272321E0,-6.233835890E0,7.937478143E0
6.572334833E0,4.435046999E0,2.936893285E0,-6.529904977E0,8.422270659E0
6.582278833E0,5.019086779E0,3.128731075E0,-6.892451059E0,9.082184309E0
6.592222833E0,5.561340601E0,3.451847042E0,-7.126035630E0,9.675956856E0
6.602166083E0,6.123649204E0,3.815448546E0,-7.197991465E0,1.019155574E1
6.612110083E0,6.684738078E0,4.060296024E0,-6.994047600E0,1.049230331E1
6.622054083E0,7.002876896E0,3.900147219E0,-6.408996252E0,1.026287806E1
6.631998083E0,6.789327809E0,3.227319224E0,-5.167782058E0,9.122309624E0
6.641942083E0,5.542687984E0,1.887239138E0,-3.408972918E0,6.775260733E0
6.651886083E0,3.191721960E0,-1.767964125E-2,-4.116334569E-1,3.218205050E0
6.661829083E0,-1.357706518E0,-2.444751270E0,6.094344129E0,6.705311784E0
6.671773083E0,-9.078044375E0,-6.440417435E0,1.509514971E1,1.875509027E1
6.681717083E0,-1.617671153E1,-1.186843509E1,2.036846231E1,2.859055796E1
6.691661083E0,-1.736590538E1,-1.347135804E1,1.847370015E1,2.871114338E1
6.701605083E0,-1.560886386E1,-1.112769578E1,1.560358031E1,2.471707836E1
6.711549083E0,-1.004248179E1,-4.541896094E0,1.233603458E1,1.654261194E1
6.721493083E0,-4.276046003E0,6.321465772E-1,7.766067177E0,8.887968165E0
6.731437083E0,-9.722288257E-1,3.418647137E0,4.122152841E0,5.442841278E0
6.741381083E0,1.454346959E0,4.629342374E0,2.549996474E0,5.481643723E0
6.751325083E0,1.891382475E0,3.698607729E0,1.731813714E0,4.500689452E0
6.761269083E0,2.782122749E-1,1.327203932E0,-1.235954331E0,1.834790303E0
6.771213083E0,-1.797944553E0,-6.991796422E-1,-4.711534345E0,5.091170069E0
6.781157083E0,-3.600207860E0,-2.002692411E0,-7.517713709E0,8.572531303E0
6.791101083E0,-4.635948558E0,-2.382903516E0,-9.436064127E0,1.078005354E1
6.801045083E0,-3.917087188E0,-2.237715397E0,-9.677926016E0,1.067769611E1
6.810989083E0,-1.870472832E0,-2.533293318E0,-7.562774692E0,8.192179483E0
6.820933083E0,1.000706520E0,-2.942256936E0,-4.012903172E0,5.075596643E0
6.830877083E0,3.815503510E0,-2.798925308E0,-5.809629750E-1,4.767553659E0
6.840821083E0,5.944686983E0,-3.127830019E0,1.541941173E0,6.892039360E0
6.850765083E0,6.188191355E0,-3.605377969E0,3.298633620E-1,7.169468069E0
6.860709083E0,4.657728851E0,-3.566447791E0,-2.882643695E0,6.536330972E0
6.870653083E0,2.795382480E0,-3.131453539E0,-4.999816110E0,6.528271257E0
6.880597083E0,2.264230766E0,-2.794772031E0,-5.682598990E0,6.725282369E0
6.890541083E0,3.085519567E0,-2.391354496E0,-5.479444499E0,6.727801970E0
6.900485083E0,4.015873557E0,-2.111045410E0,-5.201840919E0,6.902383798E0
6.910429083E0,3.734154122E0,-2.308188379E0,-5.280826278E0,6.867224096E0
6.920373083E0,2.352603244E0,-2.499977052E0,-5.538817127E0,6.516373412E0
6.930317083E0,1.486111373E0,-2.338333114E0,-5.528113214E0,6.183555973E0
6.940261083E0,1.348905289E0,-1.967202151E0,-5.318384113E0,5.828776832E0
6.950205083E0,1.390151548E0,-1.338768556E0,-4.971440742E0,5.332920928E0
6.960149083E0,1.202790386E0,-6.233722454E-1,-4.410363270E0,4.613740548E0
6.970093083E0,8.569188094E-1,9.912141502E-2,-3.720320487E0,3.819020742E0
6.980037083E0,6.318337512E-1,6.422277617E-1,-3.045758500E0,3.176210829E0
6.989981083E0,8.334890163E-1,9.172421944E-1,-2.430037921E0,2.727841909E0
6.999924083E0,1.199924666E0,1.189694962E0,-1.982212538E0,2.604680374E0
7.009868083E0,1.436488978E0,1.527534218E0,-1.499716675E0,2.577985934E0
7.019812083E0,1.429081140E0,1.894903668E0,-7.876708192E-1,2.500671537E0
7.029756083E0,1.284740868E0,2.231192243E0,9.542420229E-2,2.576409071E0
7.039700083E0,9.523073620E-1,2.455365136E0,8.881674993E-1,2.779307246E0
7.049644083E0,5.730388284E-1,2.534483811E0,1.433223892E0,2.967509463E0
7.059588083E0,1.215817398E-1,2.581713526E0,1.675788617E0,3.080307507E0
7.069532083E0,-4.372910392E-1,2.758692956E0,1.542459236E0,3.190735146E0
7.079476083E0,-1.049388099E0,2.992709051E0,1.179502753E0,3.383600094E0
7.089420083E0,-1.538041080E0,2.809575427E0,9.336073816E-1,3.336301423E0
7.099364083E0,-1.635335240E0,2.466390061E0,9.077720439E-1,3.095391956E0
7.109308083E0,-1.778975601E0,2.142609850E0,1.020242068E0,2.965876773E0
7.119252083E0,-2.303200119E0,1.900352688E0,1.193112733E0,3.215523149E0
7.129196083E0,-3.470894347E0,1.357656816E0,1.779808245E0,4.130140069E0
7.139140083E0,-3.873379835E0,8.081787586E-2,3.028674105E0,4.917567459E0
7.149084083E0,-3.580218569E0,-1.149776605E0,4.094580588E0,5.559275262E0
7.159028083E0,-3.169011959E0,-1.661013288E0,4.905272480E0,6.071515465E0
7.168972083E0,-2.530909408E0,-1.006984091E0,5.310205028E0,5.968064747E0
7.178916083E0,-1.749419680E0,5.151777059E-1,4.355312612E0,4.721718462E0
7.188860083E0,-1.025915036E0,1.758712660E0,2.574451869E0,3.282281875E0
7.198804083E0,7.808664143E-2,2.389202136E0,1.332718588E0,2.736882023E0
7.208748083E0,7.738175958E-1,2.212158971E0,5.054495470E-1,2.397482061E0
7.218692083E0,5.810787499E-1,1.260247466E0,-1.580465846E-1,1.396730078E0
7.228636083E0,-2.385973889E-1,-7.900056124E-2,-6.784721665E-1,7.235290481E-1
7.238580083E0,-1.398413079E0,-1.279985327E0,-1.208314105E0,2.248097985E0
7.248524083E0,-2.607223173E0,-2.072338012E0,-1.895111829E0,3.831924628E0
7.258468083E0,-3.657794456E0,-2.492631195E0,-2.074172137E0,4.888236964E0
7.268412083E0,-4.512139614E0,-2.742573937E0,-1.491672806E0,5.486912014E0
7.278356083E0,-4.993842010E0,-2.762761449E0,-4.076199281E-1,5.721666090E0
7.288300083E0,-5.151908036E0,-2.429076054E0,7.397220428E-1,5.743670916E0
7.298244083E0,-5.295174176E0,-1.935428381E0,1.696492438E0,5.887515534E0
7.308188083E0,-5.632557349E0,-1.676886140E0,2.488144919E0,6.381889576E0
7.318132083E0,-6.018364824E0,-1.672228832E0,3.109027420E0,6.977328710E0
7.328075083E0,-6.110665462E0,-1.755721225E0,3.605959182E0,7.309290734E0
7.338019083E0,-6.096288913E0,-1.712841253E0,3.841539992E0,7.406483186E0
7.347963083E0,-5.733667987E0,-1.128576940E0,3.563605168E0,6.844553768E0
7.357907083E0,-5.104719252E0,3.608082891E-2,2.777523329E0,5.811548530E0
7.367851083E0,-4.572955919E0,1.199700133E0,2.043534043E0,5.150459943E0
7.377795083E0,-4.017764547E0,2.104533951E0,1.888123529E0,4.912891772E0
7.387739083E0,-3.466224761E0,2.666264264E0,2.325740405E0,4.953054376E0
7.397683083E0,-2.932113186E0,2.740614535E0,2.971580722E0,4.993850994E0
7.407627083E0,-2.362081581E0,2.195162285E0,3.220410154E0,4.557324699E0
7.417571083E0,-1.907114993E0,1.083791946E0,3.117578096E0,3.811953012E0
7.427515083E0,-1.472923563E0,-3.274206877E-1,2.593145417E0,3.000185208E0
7.437459083E0,-1.526661814E0,-1.908044116E0,1.419188675E0,2.825849454E0
7.447403083E0,-2.078071792E0,-3.427242544E0,-6.609065460E-1,4.062163375E0
7.457347083E0,-2.750927854E0,-4.461992723E0,-2.780319468E0,5.933562122E0
7.467291083E0,-3.723680005E0,-5.749678833E0,-3.732952520E0,7.801252077E0
7.477235083E0,-4.608494126E0,-7.554238926E0,-3.775231982E0,9.620661120E0
7.487179083E0,-3.979254200E0,-8.429821463E0,-3.467357074E0,9.945799061E0
7.497123083E0,-2.254726117E0,-7.948000368E0,-3.045122615E0,8.804957210E0
7.507067083E0,-6.293095082E-1,-6.793369405E0,-2.377304514E0,7.224782009E0
7.517011083E0,9.914404374E-1,-4.963396143E0,-1.375860076E0,5.245116429E0
7.526955083E0,2.391953251E0,-3.059208266E0,-8.701463807E-1,3.979616852E0
7.536899083E0,3.124496521E0,-1.367394769E0,-1.352124766E0,3.668853819E0
7.546843083E0,3.189159125E0,-1.503588116E-1,-2.521819911E0,4.068527911E0
7.556787083E0,3.147393048E0,6.839149010E-1,-3.487767658E0,4.747456775E0
7.566731083E0,3.180502907E0,1.372433315E0,-3.973418094E0,5.271358771E0
7.576675083E0,3.166121680E0,2.080607729E0,-4.110092667E0,5.589822604E0
7.586619083E0,3.139708638E0,2.582864842E0,-4.143576455E0,5.805013950E0
7.596563083E0,3.070904451E0,2.870073059E0,-4.190195136E0,5.935108153E0
7.606504292E0,2.998608892E0,3.035375599E0,-4.188959911E0,5.979343229E0
7.616448292E0,2.897297110E0,3.111252578E0,-4.249596707E0,6.011097680E0
7.626392292E0,2.767138674E0,3.184501818E0,-4.343359734E0,6.054988196E0
7.636336292E0,2.591861368E0,3.275269316E0,-4.507944236E0,6.145461389E0
7.646280292E0,2.560178815E0,3.272216485E0,-4.751987137E0,6.312154786E0
7.656224292E0,2.738487902E0,3.154940050E0,-4.945620607E0,6.473957514E0
7.666168292E0,3.047575230E0,2.935125087E0,-5.172193782E0,6.682384498E0
7.676111292E0,3.423007990E0,2.670905784E0,-5.499584649E0,7.006864685E0
7.686055292E0,3.874728203E0,2.482940605E0,-5.873281370E0,7.461497621E0
7.695999292E0,4.374468675E0,2.434987589E0,-6.294238213E0,8.042547819E0
7.705943292E0,4.858525161E0,2.480815727E0,-6.665013081E0,8.612903852E0
7.715887292E0,5.364598167E0,2.516235235E0,-6.928092177E0,9.116403593E0
7.725831292E0,5.949641914E0,2.439478835E0,-6.986333953E0,9.495164980E0
7.735775292E0,6.640585753E0,2.163432369E0,-6.694902878E0,9.674685695E0
7.745719292E0,7.255835631E0,1.684671707E0,-6.066706679E0,9.606778825E0
7.755663292E0,7.482887692E0,9.199003386E-1,-4.788441603E0,8.931349161E0
7.765607292E0,6.844589844E0,1.013673306E-1,-2.716645336E0,7.364702801E0
7.775551292E0,4.740635937E0,-9.013693428E-1,1.688629103E-1,4.828520526E0
7.785495292E0,8.639916015E-1,-1.996897820E0,3.391675100E0,4.029583400E0
7.795439292E0,-4.867354456E0,-3.235782484E0,7.527520659E0,9.530214843E0
7.805383292E0,-1.214792030E1,-5.711373138E0,1.418752501E1,1.953145199E1
7.815327292E0,-1.880945663E1,-8.197846631E0,1.805438462E1,2.733059004E1
7.825271292E0,-2.163762620E1,-8.246080897E0,1.670845498E1,2.855445999E1
7.835215292E0,-1.879071630E1,-3.688722426E0,1.415216807E1,2.381137445E1
7.845159292E0,-1.183312492E1,2.032814927E0,1.071230022E1,1.609063572E1
7.855103292E0,-6.885772369E0,5.311050535E0,7.369734129E0,1.139886398E1
7.865047292E0,-3.980922410E0,7.413978256E0,5.918058178E0,1.028777087E1
7.874991292E0,-2.691106744E0,8.089559121E0,3.324290325E0,9.150624484E0
7.884935292E0,-2.502495448E0,6.800368522E0,-2.317979249E0,7.607925032E0
7.894879292E0,-2.411536161E0,4.507237308E0,-6.971763276E0,8.645008849E0
7.904823292E0,-1.953281100E0,2.136564413E0,-9.579689870E0,1.000753079E1
7.914767292E0,-1.502701678E0,2.035374838E-1,-1.111351277E1,1.121649258E1
7.924711292E0,-1.161665164E0,-1.586598113E0,-1.209569063E1,1.225448862E1
7.934655292E0,-3.197082102E-1,-3.690355554E0,-1.229850715E1,1.284422889E1
7.944599292E0,1.716153116E0,-7.706331437E0,-9.501223744E0,1.235337923E1
7.954543292E0,4.629529485E0,-8.060031266E0,-4.108133265E0,1.016235239E1
7.964487292E0,7.103358958E0,-6.731525159E0,1.105626619E-1,9.786897545E0
7.974431292E0,8.674555505E0,-6.230055081E0,3.079817362E0,1.111515967E1
7.984375292E0,7.840784068E0,-4.985841849E0,2.274735581E0,9.566134837E0
7.994319292E0,4.406514341E0,-3.490208870E0,-1.663351589E0,5.862223563E0
8.004263292E0,2.312237576E0,-2.728538280E0,-3.938145058E0,5.319807351E0
8.014206292E0,2.796253130E0,-2.053155636E0,-4.205174533E0,5.451419309E0
8.024150292E0,3.655447091E0,-1.606102086E0,-3.980157010E0,5.637686331E0
8.034094292E0,3.980113156E0,-1.570197258E0,-4.039378780E0,5.884165284E0
8.044038292E0,3.458698225E0,-1.858040482E0,-4.645068460E0,6.082069454E0
8.053982292E0,2.543761003E0,-2.037123156E0,-5.245925417E0,6.175785316E0
8.063926292E0,1.816664999E0,-1.865609702E0,-5.358425846E0,5.957642053E0
8.073870292E0,1.319317793E0,-1.552299516E0,-4.977236502E0,5.378021609E0
8.083814292E0,1.013327150E0,-1.143658664E0,-4.166619455E0,4.437961777E0
8.093758292E0,9.764785820E-1,-5.715442801E-1,-3.487993360E0,3.666915729E0
8.103702292E0,1.018428261E0,-1.833388621E-1,-2.986395228E0,3.160595785E0
8.113646292E0,9.104845673E-1,2.145091993E-1,-2.610328630E0,2.772870696E0
8.123590292E0,6.708761948E-1,7.617138594E-1,-2.195198099E0,2.418507301E0
8.133534292E0,4.241295415E-1,1.211458883E0,-1.643384517E0,2.085241273E0
8.143478292E0,3.080956399E-1,1.804089977E0,-9.470798781E-1,2.060733817E0
8.153422292E0,2.907346720E-1,2.448568917E0,-4.764780005E-2,2.466229248E0
8.163366292E0,4.175064003E-1,2.834917844E0,8.594892454E-1,2.991620387E0
8.173310292E0,4.306205356E-1,3.128759142E0,1.682979523E0,3.578685218E0
8.183254292E0,2.379360688E-1,3.294074546E0,2.201723446E0,3.969272833E0
8.193198292E0,-1.032635826E-1,3.293382820E0,2.288149971E0,4.011566285E0
8.203142292E0,-5.488950902E-1,3.250103484E0,2.043894377E0,3.878396925E0
8.213086292E0,-1.021006299E0,3.093532591E0,1.657479815E0,3.655083732E0
8.223030292E0,-1.310006686E0,2.656598232E0,1.305206122E0,3.236849503E0
8.232974292E0,-1.529058003E0,2.176731277E0,9.819976227E-1,2.835576971E0
8.242918292E0,-1.807718174E0,1.981126710E0,7.872970359E-1,2.795092961E0
8.252862292E0,-2.273443054E0,1.756473176E0,1.035119723E0,3.053721366E0
8.262806292E0,-2.451730506E0,9.015979689E-1,1.741096461E0,3.139311750E0
8.272750292E0,-2.279054627E0,-2.143273509E-1,2.404828820E0,3.320124675E0
8.282694292E0,-2.193746089E0,-1.062964164E0,2.814245013E0,3.723223027E0
8.292638292E0,-2.367509551E0,-1.292387272E0,3.317811026E0,4.275890122E0
8.302582292E0,-2.495239638E0,-5.889999729E-1,3.741446185E0,4.535588316E0
8.312526292E0,-2.046931860E0,3.341280288E-1,3.617107483E0,4.169536920E0
8.322470292E0,-1.117208784E0,7.690842748E-1,2.825310576E0,3.134011158E0
8.332414292E0,-3.279323190E-1,7.288536769E-1,2.079580958E0,2.227874379E0
8.342358292E0,-2.000352940E-1,1.247181863E-1,1.453443710E0,1.472435861E0
8.352302292E0,-7.872135669E-1,-8.669222260E-1,7.170124805E-1,1.373086393E0
8.362246292E0,-1.832651287E0,-1.617743892E0,-1.423677143E-1,2.448667925E0
8.372189292E0,-3.069178061E0,-1.897354821E0,-8.859688000E-1,3.715474398E0
8.382133292E0,-4.307487358E0,-1.845184209E0,-1.030073430E0,4.797937408E0
8.392077292E0,-5.197982926E0,-1.517215637E0,-3.294523028E-1,5.424897106E0
8.402021292E0,-5.738756819E0,-9.371659970E-1,7.481582594E-1,5.862708479E0
8.411965292E0,-6.157856001E0,-4.345188743E-1,1.532321334E0,6.360503584E0
8.421909292E0,-6.950494030E0,-3.673080540E-1,2.083376093E0,7.265310620E0
8.431853292E0,-7.653007754E0,-6.129630321E-1,2.509241381E0,8.077161857E0
8.441797292E0,-7.439568011E0,-8.642623276E-1,2.924819369E0,8.040440902E0
8.451741292E0,-6.456055813E0,-8.943684715E-1,3.293834226E0,7.302732059E0
8.461685292E0,-5.078989164E0,-4.732128239E-1,3.295670836E0,6.073014702E0
8.471629292E0,-3.893475546E0,3.473023903E-1,2.910738105E0,4.873619506E0
8.481573292E0,-3.086325313E0,1.111257488E0,2.843172358E0,4.340959134E0
8.491517292E0,-2.078154237E0,1.578501474E0,3.843018168E0,4.645339662E0
8.501461292E0,-8.402045435E-1,1.408383751E0,5.081284196E0,5.339376139E0
8.511405292E0,-8.068572879E-3,3.254969537E-1,5.152226125E0,5.162503987E0
8.521349292E0,1.416055298E-1,-1.392532534E0,3.664831288E0,3.923032928E0
8.531293292E0,-1.791388071E-1,-3.054053945E0,1.058742474E0,3.237324796E0
8.541237292E0,-8.854865509E-1,-4.035407351E0,-1.761305169E0,4.491190802E0
8.551181292E0,-2.166898014E0,-4.957199264E0,-3.845224907E0,6.637396035E0
8.561125292E0,-3.692368750E0,-6.712382544E0,-4.967932413E0,9.130718420E0
8.571069292E0,-5.003376480E0,-9.360757252E0,-5.090977710E0,1.177181407E1
8.581013292E0,-5.666270056E0,-1.123043603E1,-4.309441205E0,1.329663842E1
8.590957292E0,-4.646618557E0,-1.074235608E1,-2.708553082E0,1.201355642E1
8.600901458E0,-2.646242228E0,-8.968276935E0,-2.681936556E-1,9.354384905E0
8.610845458E0,-7.091544074E-1,-6.658267148E0,2.481733447E0,7.141037900E0
8.620789458E0,1.034242641E0,-4.126763663E0,3.544050032E0,5.537158730E0
8.630733458E0,1.948593387E0,-2.067796479E0,1.248597474E0,3.103513190E0
8.640677458E0,2.070424803E0,-8.282119042E-1,-1.478931870E0,2.675786482E0
8.650621458E0,1.988170266E0,5.880369365E-2,-3.106814541E0,3.688980276E0
8.660565458E0,2.118200063E0,6.987884635E-1,-4.176883365E0,4.735127397E0
8.670509458E0,2.325011403E0,1.391666561E0,-4.573707871E0,5.316128058E0
8.680453458E0,2.448749596E0,2.062070886E0,-4.586945382E0,5.593619478E0
8.690397458E0,2.456155679E0,2.466433915E0,-4.780836130E0,5.913745943E0
8.700341458E0,2.431120825E0,2.765846440E0,-5.078069397E0,6.272722200E0
8.710285458E0,2.337201093E0,3.033839536E0,-5.332979933E0,6.565620020E0
8.720229458E0,2.247597776E0,3.199145000E0,-5.616086912E0,6.843000563E0
8.730173458E0,2.242918249E0,3.322462778E0,-5.942641627E0,7.168293430E0
8.740117458E0,2.399851670E0,3.333687093E0,-6.168073425E0,7.410660393E0
8.750061458E0,2.708027417E0,3.333998165E0,-6.321535939E0,7.642694085E0
8.760005458E0,3.146303127E0,3.323048084E0,-6.477242614E0,7.930734129E0
8.769949458E0,3.614882618E0,3.201682107E0,-6.492519050E0,8.091412007E0
8.779893458E0,4.114744712E0,2.996620839E0,-6.494205387E0,8.251397706E0
8.789837458E0,4.597130063E0,2.789819439E0,-6.589673461E0,8.505321490E0
8.799780458E0,5.116072206E0,2.733265754E0,-6.707806513E0,8.867897424E0
8.809724458E0,5.674004753E0,2.837274272E0,-6.699789396E0,9.226680507E0
8.819668458E0,6.265185152E0,3.051233833E0,-6.422660025E0,9.476979197E0
8.829612458E0,6.882929453E0,3.335576913E0,-5.937500755E0,9.682701401E0
8.839556458E0,7.432605731E0,3.615590715E0,-5.359916301E0,9.851133282E0
8.849500458E0,7.875325910E0,3.748900800E0,-4.895359111E0,1.000197762E1
8.859444458E0,8.057853178E0,3.517678505E0,-4.400694607E0,9.832048257E0
8.869388458E0,7.540899088E0,2.634750111E0,-3.243590271E0,8.621365614E0
8.879332458E0,5.893034434E0,8.762222224E-1,-1.357750079E0,6.110573255E0
8.889276458E0,2.587394096E0,-1.188458861E0,2.490850426E0,3.783038265E0
8.899220458E0,-4.557419867E0,-3.286879547E0,1.079644399E1,1.217114850E1
8.909164458E0,-1.484731313E1,-7.842365740E0,1.929072691E1,2.557493993E1
8.919108458E0,-1.794660172E1,-1.075937966E1,1.509391010E1,2.580059856E1
8.929052458E0,-1.819117087E1,-1.159863286E1,1.374924580E1,2.558297758E1
8.938996458E0,-1.801558367E1,-8.720993507E0,1.442908519E1,2.467418655E1
8.948940458E0,-8.948546675E0,-1.567325690E0,1.117009043E1,1.439805256E1
8.958884458E0,-3.991974233E0,2.923208461E0,7.279300507E0,8.801660176E0
8.968828458E0,-1.264161592E0,5.769022007E0,5.117688376E0,7.814758714E0
8.978772458E0,9.510262370E-2,6.518083661E0,4.327896772E0,7.824650126E0
8.988716458E0,-6.646869171E-1,5.021970626E0,1.326343807E0,5.236524186E0
8.998660458E0,-2.239851969E0,3.086716492E0,-2.899531916E0,4.790828830E0
9.008604458E0,-3.580026780E0,1.639469807E0,-6.419479140E0,7.530880787E0
9.018548458E0,-4.411279821E0,6.179115307E-1,-8.850791754E0,9.908467036E0
9.028492458E0,-4.628222047E0,2.947873771E-2,-1.033006656E1,1.131952223E1
9.038436458E0,-3.951941271E0,-6.337808740E-1,-1.117670012E1,1.187173718E1
9.048380458E0,-2.950406200E0,-1.895928100E0,-1.075017380E1,1.130777064E1
9.058324458E0,4.697939569E-1,-3.866190099E0,-6.787711639E0,7.825673232E0
9.068268458E0,3.992304600E0,-4.555441169E0,-1.400343537E0,6.217033239E0
9.078212458E0,6.246606794E0,-5.434152551E0,2.084802229E0,8.537945346E0
9.088156458E0,6.613444732E0,-5.482130710E0,1.669937601E0,8.751005653E0
9.098100458E0,5.051338851E0,-4.405304552E0,-1.024431890E0,6.780279720E0
9.108044458E0,3.489462181E0,-3.478285813E0,-2.805496117E0,5.669711365E0
9.117988458E0,3.604485683E0,-2.590329983E0,-3.338771832E0,5.554234763E0
9.127932458E0,4.665970502E0,-1.906305739E0,-3.128892458E0,5.932558496E0
9.137876458E0,4.719228112E0,-1.717099780E0,-3.507982067E0,6.125804748E0
9.147820458E0,3.570527979E0,-1.628738996E0,-4.314979688E0,5.832710388E0
9.157764458E0,2.148946477E0,-1.585688871E0,-4.868596405E0,5.552982182E0
9.167708458E0,1.527802606E0,-1.590411667E0,-5.176056452E0,5.626291005E0
9.177652458E0,1.218367369E0,-1.345444906E0,-5.376068065E0,5.674217909E0
9.187596458E0,5.626652831E-1,-7.878743023E-1,-5.005628242E0,5.098397026E0
9.197540458E0,-5.691252869E-1,-8.606107414E-2,-4.215412423E0,4.254528410E0
9.207484458E0,-1.017167017E0,7.015787548E-1,-3.522437553E0,3.732881971E0
9.217428458E0,-4.656810254E-1,1.337221967E0,-2.885975439E0,3.214634604E0
9.227372458E0,3.568842226E-1,1.632516882E0,-2.272024081E0,2.820384928E0
9.237316458E0,5.628892314E-1,2.076562040E0,-1.922849851E0,2.885533875E0
9.247260458E0,3.473392278E-1,2.660487215E0,-1.429610898E0,3.040168429E0
9.257204458E0,2.011699462E-1,3.154093373E0,-7.766657746E-1,3.254532851E0
9.267148458E0,3.583343321E-1,3.388533976E0,4.007915497E-2,3.407663766E0
9.277092458E0,7.129749781E-1,3.472902281E0,8.960717654E-1,3.656819408E0
9.287036458E0,1.005571404E0,3.394274772E0,1.541375163E0,3.861102494E0
9.296980458E0,9.746940118E-1,3.165133501E0,1.984210532E0,3.860724016E0
9.306924458E0,6.425680697E-1,2.719381540E0,2.273353007E0,3.602230362E0
9.316868458E0,1.413143384E-1,2.262682423E0,2.312075608E0,3.238115981E0
9.326812458E0,-5.107876164E-1,1.782045389E0,2.197264359E0,2.874814850E0
9.336755458E0,-1.258036634E0,1.223681318E0,1.899422250E0,2.586089137E0
9.346699458E0,-1.865285182E0,6.548624253E-1,1.555566355E0,2.515535786E0
9.356643458E0,-1.966159008E0,1.939375252E-1,1.680267584E0,2.593586737E0
9.366587458E0,-1.762275369E0,-4.009962022E-1,2.097219522E0,2.768527073E0
9.376531458E0,-1.204386676E0,-1.034565407E0,2.493918167E0,2.956433776E0
9.386475458E0,-5.380660468E-1,-1.538831039E0,2.744309975E0,3.191982656E0
9.396419458E0,-2.188811624E-1,-1.616193210E0,2.871282263E0,3.302158580E0
9.406363458E0,-5.696725863E-1,-1.052314045E0,2.938996528E0,3.173262091E0
9.416307458E0,-1.237041036E0,6.455910802E-3,2.613887830E0,2.891837096E0
9.426251458E0,-1.381475157E0,8.753843164E-1,1.919927705E0,2.522081224E0
9.436195458E0,-1.222408087E0,1.358714578E0,1.309440822E0,2.248337631E0
9.446139458E0,-1.301253405E0,1.360939443E0,9.072190435E-1,2.090086836E0
9.456083458E0,-1.664687093E0,1.039500457E0,6.131017573E-1,2.056122099E0
9.466027458E0,-2.098991667E0,7.265364254E-1,2.644508529E-1,2.236862859E0
9.475971458E0,-2.618914681E0,4.920233166E-1,-1.820824416E-1,2.670946474E0
9.485915458E0,-3.363483042E0,1.681793708E-1,-6.006865105E-1,3.420837143E0
9.495859458E0,-4.314373624E0,-2.821351719E-1,-8.310695846E-1,4.402737407E0
9.505803458E0,-5.378312227E0,-7.305101931E-1,-7.674635728E-1,5.481686591E0
9.515747458E0,-6.210201445E0,-1.078460455E0,-3.519159897E-1,6.312964739E0
9.525691458E0,-6.617123215E0,-1.488193567E0,9.906601265E-2,6.783130090E0
9.535635458E0,-6.787010558E0,-1.853467959E0,5.528403528E-1,7.057229502E0
9.545579458E0,-6.995005374E0,-2.313594714E0,1.008226916E0,7.436352748E0
9.555523458E0,-6.705756480E0,-2.574412107E0,1.710427669E0,7.383788355E0
9.565467458E0,-5.729957929E0,-2.316296128E0,2.851056744E0,6.806333093E0
9.575411458E0,-4.666705789E0,-1.501160352E0,4.372250826E0,6.568729148E0
9.585355458E0,-3.871062876E0,-1.952788764E-1,5.480320412E0,6.712464037E0
9.595299458E0,-3.246673215E0,1.335321037E0,5.543596641E0,6.561663886E0
9.605243083E0,-2.770153499E0,2.456400678E0,5.099149779E0,6.301506420E0
9.615187083E0,-2.127158290E0,3.196988547E0,4.959243450E0,6.272131516E0
9.625131083E0,-1.393015514E0,3.223722602E0,5.031499833E0,6.135867518E0
9.635075083E0,-9.431588084E-1,2.334106747E0,4.642869322E0,5.281461766E0
9.645019083E0,-9.937997890E-1,6.143365431E-1,3.710101016E0,3.889716822E0
9.654963083E0,-1.405583519E0,-1.504152957E0,2.066849815E0,2.917192024E0
9.664907083E0,-2.444734898E0,-3.633540498E0,9.855832815E-2,4.380531819E0
9.674851083E0,-3.989929461E0,-5.144827058E0,-2.197846157E0,6.871630832E0
9.684795083E0,-5.671748312E0,-6.804136468E0,-3.820912769E0,9.646987943E0
9.694739083E0,-7.195359634E0,-9.281122853E0,-4.419441073E0,1.254766516E1
9.704683083E0,-7.373060610E0,-1.065870698E1,-4.446406969E0,1.370184631E1
9.714627083E0,-4.986499661E0,-9.677234876E0,-3.351757329E0,1.139071248E1
9.724571083E0,-2.300394040E0,-7.882979330E0,-1.317063691E0,8.316720064E0
9.734515083E0,1.048054934E-2,-5.823180088E0,8.328677496E-1,5.882448883E0
9.744459083E0,1.747583655E0,-3.852672506E0,1.439063214E0,4.468560954E0
9.754403083E0,2.693991761E0,-2.240695138E0,-1.481166968E-1,3.507170493E0
9.764347083E0,2.902346181E0,-1.149084880E0,-2.222321432E0,3.831804009E0
9.774291083E0,2.861574131E0,-3.916079128E-1,-3.422329128E0,4.478202756E0
9.784235083E0,2.728266385E0,1.563966465E-1,-4.215534337E0,5.023806040E0
9.794179083E0,2.601481208E0,7.132158834E-1,-4.808019835E0,5.513024225E0
9.804123083E0,2.580264001E0,1.185679094E0,-5.053268432E0,5.796474711E0
9.814067083E0,2.611564731E0,1.597577430E0,-5.149992489E0,5.991239156E0
9.824011083E0,2.607894434E0,1.970653177E0,-5.120930073E0,6.075237619E0
9.833955083E0,2.547955211E0,2.203847154E0,-5.114791081E0,6.124549440E0
9.843899083E0,2.424092472E0,2.377747441E0,-5.216330904E0,6.224147758E0
9.853843083E0,2.300226810E0,2.491653541E0,-5.501388515E0,6.462558033E0
9.863787083E0,2.297538260E0,2.540302375E0,-5.927768065E0,6.846185247E0
9.873731083E0,2.458281142E0,2.567314172E0,-6.302182240E0,7.235450865E0
9.883675083E0,2.801937793E0,2.601832625E0,-6.561987480E0,7.594739501E0
9.893619083E0,3.302823150E0,2.614397122E0,-6.716962668E0,7.928511876E0
9.903563083E0,3.912800594E0,2.582335669E0,-6.829168983E0,8.283478435E0
9.913507083E0,4.536286275E0,2.681241322E0,-6.837048690E0,8.632043964E0
9.923451083E0,5.086080667E0,2.987053624E0,-6.899574721E0,9.077160197E0
9.933395083E0,5.513810924E0,3.407963104E0,-6.982428013E0,9.527361880E0
9.943339083E0,6.006052927E0,3.872083508E0,-7.046060922E0,1.003557059E1
9.953282083E0,6.723022138E0,4.204617586E0,-6.778056132E0,1.043167679E1
9.963227083E0,7.706941887E0,4.294098696E0,-6.323591820E0,1.085467873E1
9.973170083E0,8.800448397E0,4.134509470E0,-5.952589495E0,1.140067464E1
9.983114083E0,9.668769277E0,3.433826509E0,-5.192165532E0,1.149934114E1
9.993058083E0,9.465935798E0,1.578602630E0,-3.512286495E0,1.021920169E1
1.000300208E1,7.541820025E0,-1.523805449E0,-1.252109019E0,7.795435160E0
1.001294608E1,2.717663628E0,-5.457191750E0,3.150293852E0,6.862287429E0
1.002289008E1,-8.088393186E0,-1.130172996E1,1.728537285E1,2.217961494E1
1.003283408E1,-1.862795438E1,-1.435353916E1,2.274834224E1,3.271867731E1
1.004277808E1,-1.941914113E1,-1.219548623E1,1.414363231E1,2.694207233E1
1.005272208E1,-2.016804081E1,-9.896791391E0,1.360955348E1,2.626625774E1
1.006266608E1,-1.366287307E1,-2.801794537E0,1.161948988E1,1.815314568E1
1.007261008E1,-6.216032288E0,3.631158342E0,8.344203023E0,1.102043976E1
1.008255408E1,-2.870225671E0,7.910585790E0,6.616559544E0,1.070487847E1
1.009249808E1,-1.430186849E0,9.777956089E0,4.340434372E0,1.079320296E1
1.010244208E1,-1.342270453E0,8.925673537E0,-3.373708946E-1,9.032339518E0
1.011238608E1,-1.935664024E0,7.045145248E0,-4.225176396E0,8.439963410E0
1.012233008E1,-2.368186659E0,4.776016270E0,-7.012946970E0,8.809089889E0
1.013227408E1,-2.531521026E0,2.708852459E0,-8.777292253E0,9.528239064E0
1.014221808E1,-2.799614110E0,8.848807794E-1,-1.015160019E1,1.056767900E1
1.015216208E1,-4.041946292E0,-1.660765951E0,-1.156381386E1,1.236192802E1
1.016210608E1,-3.961389787E0,-6.180737325E0,-1.019790896E1,1.256548726E1
1.017205008E1,-1.294201663E0,-7.616356237E0,-5.081112873E0,9.246704726E0
1.018199408E1,1.607655691E0,-7.125907575E0,-7.970249024E-1,7.348357932E0
1.019193808E1,4.043433824E0,-6.627010272E0,2.914426821E0,8.292195483E0
1.020188208E1,5.418110715E0,-5.695039526E0,3.553779214E0,8.626630027E0
1.021182608E1,5.396917482E0,-3.772634064E0,7.603485346E-1,6.628545540E0
1.022177008E1,4.112710465E0,-2.198618574E0,-1.893792697E0,5.033364857E0
1.023171408E1,3.778902279E0,-1.716147854E0,-3.066623997E0,5.160372916E0
1.024165808E1,4.116166170E0,-1.778138865E0,-3.537092138E0,5.711008891E0
1.025160208E1,4.305335290E0,-2.000318441E0,-4.039662077E0,6.233462563E0
1.026154608E1,4.217585540E0,-2.490414516E0,-4.692715374E0,6.783197611E0
1.027149008E1,3.580612671E0,-3.199273054E0,-5.465778387E0,7.275360372E0
1.028143408E1,2.620281760E0,-3.609810743E0,-6.152600523E0,7.599414668E0
1.029137808E1,2.133330318E0,-3.509228693E0,-6.458083043E0,7.653275172E0
1.030132208E1,2.127639223E0,-2.850389577E0,-6.318526962E0,7.250886316E0
1.031126608E1,2.293467429E0,-1.916688055E0,-5.672605514E0,6.411874863E0
1.032121008E1,2.324966379E0,-9.920152187E-1,-4.730450088E0,5.363461652E0
1.033115408E1,9.023399806E-1,-8.765619457E-2,-2.544331984E0,2.701023194E0
1.034109808E1,1.624894452E-1,4.716603881E-1,-1.728420575E0,1.798973047E0
1.035104208E1,2.545043882E0,1.153267978E0,-2.260941122E0,3.594319150E0
1.036098608E1,2.307890171E0,1.437651404E0,-1.582686326E0,3.146123743E0
1.037093008E1,9.750407517E-1,1.804481741E0,-4.399778348E-1,2.097722411E0
1.038087408E1,1.119419616E0,2.102051808E0,-4.798880053E-1,2.429406219E0
1.039081808E1,1.246014174E0,2.383334455E0,4.888254013E-3,2.689397394E0
1.040076208E1,5.323960018E-1,2.572049832E0,4.135197322E-1,2.658925424E0
1.041070608E1,-1.083547533E-2,2.558773144E0,7.494913515E-1,2.666303565E0
1.042065008E1,-4.159212202E-1,2.193279482E0,9.443710092E-1,2.423902215E0
1.043059408E1,-8.382755470E-1,1.676934671E0,9.732210982E-1,2.112338773E0
1.044053808E1,-1.491782003E0,1.283393669E0,9.490322634E-1,2.184759733E0
1.045048208E1,-2.128662486E0,9.436271703E-1,1.030555387E0,2.546307252E0
1.046042608E1,-2.556816081E0,1.050839962E0,1.287937102E0,3.049648353E0
1.047037008E1,-3.070295756E0,1.348006572E0,1.701581855E0,3.760215227E0
1.048031408E1,-3.242977483E0,1.451791141E0,2.082729099E0,4.118538693E0
1.049025808E1,-3.076406096E0,1.435776787E0,2.451141399E0,4.187340876E0
1.050020208E1,-2.827224078E0,1.348697712E0,2.878910540E0,4.254445605E0
1.051014608E1,-2.594894904E0,1.378785145E0,3.348688710E0,4.455136823E0
1.052009008E1,-2.677307315E0,1.686935749E0,3.814166837E0,4.955965632E0
1.053003408E1,-2.756171637E0,2.064595129E0,4.217811828E0,5.445086937E0
1.053997808E1,-2.388715648E0,2.027425548E0,4.121979471E0,5.177560387E0
1.054992108E1,-2.051303823E0,1.659338645E0,3.322921200E0,4.243000992E0
1.055986508E1,-2.019550226E0,1.175987919E0,2.520103168E0,3.436924596E0
1.056980908E1,-2.150631060E0,6.721216518E-1,1.883768084E0,2.936927590E0
1.057975308E1,-2.356698342E0,3.174055767E-1,1.481687955E0,2.801815941E0
1.058969708E1,-2.573884104E0,5.302138209E-2,1.104011764E0,2.801166297E0
1.059964104E1,-2.813819920E0,-1.568597460E-1,6.357256579E-1,2.889002360E0
1.060958504E1,-3.008153302E0,-3.836469287E-1,2.384772286E-1,3.041881431E0
1.061952904E1,-3.290770577E0,-7.434126592E-1,-1.308489919E-1,3.376233823E0
1.062947304E1,-3.340051203E0,-1.137972831E0,-4.113402191E-1,3.552481524E0
1.063941704E1,-3.220854250E0,-1.480312690E0,-5.598875633E-1,3.588690826E0
1.064936104E1,-3.321489801E0,-1.844605919E0,-4.371963143E-1,3.824396177E0
1.065930504E1,-3.712811201E0,-2.405350977E0,5.697790056E-2,4.424243078E0
1.066924904E1,-4.099616503E0,-3.141425965E0,8.954054752E-1,5.241866416E0
1.067919304E1,-4.291592872E0,-3.637263420E0,1.755713185E0,5.893215027E0
1.068913704E1,-4.444033000E0,-3.637143552E0,2.467126225E0,6.250196344E0
1.069908104E1,-3.944353924E0,-2.613431162E0,3.017298347E0,5.611776869E0
1.070902504E1,-3.104748720E0,-8.843539453E-1,3.332617053E0,4.639814968E0
1.071896904E1,-2.463209468E0,7.941571355E-1,3.340819527E0,4.226010122E0
1.072891304E1,-2.125312616E0,2.143687491E0,3.237286388E0,4.426327251E0
1.073885704E1,-1.953676372E0,3.071343577E0,3.347166095E0,4.945050414E0
1.074880104E1,-1.809216816E0,3.263872508E0,3.463437978E0,5.091319265E0
1.075874504E1,-1.732908897E0,2.651776033E0,3.086464477E0,4.422799152E0
1.076868904E1,-1.816230551E0,1.308592830E0,2.391030561E0,3.275383298E0
1.077863304E1,-2.118409978E0,-6.931400532E-1,1.575439872E0,2.729489835E0
1.078857704E1,-2.336718698E0,-2.454893850E0,4.629926218E-1,3.420690026E0
1.079852104E1,-2.691708423E0,-3.587104835E0,-9.224554257E-1,4.578595783E0
1.080846504E1,-3.541826921E0,-4.637577592E0,-2.369377152E0,6.298064143E0
1.081840904E1,-4.861207863E0,-6.346050975E0,-3.214981599E0,8.616252756E0
1.082835304E1,-5.927102652E0,-7.896141998E0,-3.298777462E0,1.040968477E1
1.083829704E1,-4.648653973E0,-7.811943262E0,-2.902725373E0,9.542654550E0
1.084824104E1,-2.552226017E0,-6.810180734E0,-2.148274047E0,7.583370007E0
1.085818504E1,-7.804144245E-1,-5.528340086E0,-1.124233921E0,5.695216650E0
1.086812904E1,9.533592761E-1,-3.965730175E0,-1.037880778E-2,4.078727430E0
1.087807304E1,2.253375410E0,-2.380147138E0,3.275990278E-1,3.293952377E0
1.088801704E1,2.782404585E0,-1.111203693E0,-6.063439840E-1,3.056828740E0
1.089796104E1,2.801948903E0,-2.957971913E-1,-2.268460642E0,3.617226467E0
1.090790504E1,2.655505972E0,2.878157419E-1,-3.437835944E0,4.353534868E0
1.091784904E1,2.504246689E0,7.249237633E-1,-4.028613471E0,4.798592756E0
1.092779304E1,2.446300782E0,1.031890306E0,-4.283837417E0,5.039885727E0
1.093773704E1,2.534724131E0,1.306493679E0,-4.445424052E0,5.281434196E0
1.094768104E1,2.709623122E0,1.577221518E0,-4.378062374E0,5.384896966E0
1.095762504E1,2.786146218E0,1.741758658E0,-4.246846469E0,5.369547365E0
1.096756904E1,2.764078826E0,1.940286832E0,-4.114334529E0,5.322836966E0
1.097751304E1,2.646977223E0,2.204602615E0,-4.268520636E0,5.485164494E0
1.098745704E1,2.615168370E0,2.476082405E0,-4.342317175E0,5.641436708E0
1.099740104E1,2.722326198E0,2.611253074E0,-4.356409550E0,5.762638867E0
1.100734504E1,2.948099474E0,2.578185316E0,-4.524847367E0,5.984360762E0
1.101728904E1,3.330302725E0,2.444642512E0,-4.783719684E0,6.320693575E0
1.102723304E1,3.810788900E0,2.311900776E0,-5.114871773E0,6.784460958E0
1.103717704E1,4.364335451E0,2.239290052E0,-5.483557431E0,7.357393965E0
1.104712104E1,4.921942892E0,2.138379974E0,-5.776395346E0,7.884474233E0
1.105706504E1,5.488432254E0,2.044830955E0,-5.944895729E0,8.345418352E0
1.106700904E1,6.073373675E0,2.043916451E0,-6.028393384E0,8.798010516E0
1.107695304E1,6.747983902E0,2.098768596E0,-6.070612035E0,9.316246392E0
1.108689704E1,7.539775254E0,2.161848943E0,-6.042885708E0,9.901427645E0
1.109684104E1,8.257267206E0,2.164795355E0,-5.961734540E0,1.041206413E1
1.110678504E1,8.592683376E0,1.899528231E0,-5.373337415E0,1.031092479E1
1.111672904E1,8.441256863E0,1.209953225E0,-3.938214932E0,9.392994255E0
1.112667204E1,7.014723355E0,1.884721327E-1,-2.222552105E0,7.360815399E0
1.113661604E1,3.879780782E0,-1.086255378E0,-5.379485178E-1,4.064731021E0
1.114656004E1,-5.966978323E-1,-2.606803343E0,1.634748472E0,3.134306070E0
1.115650404E1,-6.884252678E0,-4.425977967E0,6.747172308E0,1.060691049E1
1.116644804E1,-1.494248476E1,-7.006533160E0,1.461596220E1,2.204531035E1
1.117639204E1,-2.159004156E1,-9.141977831E0,1.612134190E1,2.845352909E1
1.118633604E1,-2.274139808E1,-7.753500926E0,1.398382205E1,2.779991443E1
1.119628004E1,-1.747700482E1,-1.613943787E0,1.200064063E1,2.126184111E1
1.120622404E1,-1.167794917E1,3.612388195E0,1.012357916E1,1.587169494E1
1.121616804E1,-7.932625700E0,6.571811387E0,7.591387457E0,1.279626582E1
1.122611204E1,-5.470854939E0,7.724959497E0,4.550742347E0,1.050307140E1
1.123605604E1,-4.092097276E0,7.233571773E0,1.515575493E0,8.447886705E0
1.124600004E1,-3.471797158E0,5.270941560E0,-2.355264312E0,6.736725496E0
1.125594404E1,-2.943201261E0,2.844044763E0,-6.136911274E0,7.376496747E0
1.126588804E1,-2.084617749E0,9.347920275E-1,-8.743218774E0,9.036777181E0
1.127583204E1,-1.166067533E0,-2.997113174E-1,-1.039400820E1,1.046350548E1
1.128577604E1,-4.747126347E-1,-1.608063242E0,-1.105219068E1,1.117864653E1
1.129572004E1,3.192702538E-1,-3.852604678E0,-1.023294665E1,1.093881591E1
1.130566404E1,3.001645936E0,-6.128379017E0,-5.674311147E0,8.874948715E0
1.131560804E1,5.724942187E0,-5.869153821E0,-9.131979677E-1,8.249597575E0
1.132555204E1,7.903767352E0,-5.891912354E0,2.090170558E0,1.007734997E1
1.133549604E1,8.280499363E0,-5.941971536E0,2.725395986E0,1.054995160E1
1.134544004E1,6.177426047E0,-4.573788562E0,-7.312323242E-2,7.686708098E0
1.135538404E1,3.396925900E0,-3.310873597E0,-3.107008669E0,5.670493136E0
1.136532804E1,2.697300700E0,-2.644866378E0,-4.085802163E0,5.564578020E0
1.137527204E1,3.582440511E0,-2.007491806E0,-3.819445118E0,5.608214009E0
1.138521604E1,4.439613090E0,-1.761845013E0,-3.630692319E0,5.999682404E0
1.139516004E1,4.534760737E0,-1.910770673E0,-3.940450907E0,6.304145688E0
1.140510404E1,3.560239218E0,-2.351781710E0,-4.556940980E0,6.242747119E0
1.141504804E1,2.586668456E0,-2.840019540E0,-5.161157747E0,6.433825765E0
1.142499204E1,1.914654393E0,-3.003554467E0,-5.539918157E0,6.586192684E0
1.143493604E1,1.326486479E0,-2.710847529E0,-5.381901248E0,6.170342109E0
1.144488004E1,1.074693679E0,-1.944927183E0,-4.523460115E0,5.039781708E0
1.145482404E1,1.210264297E0,-1.060130019E0,-3.631253360E0,3.971727116E0
1.146476804E1,1.508421425E0,-4.425693208E-1,-3.009550202E0,3.395378508E0
1.147471204E1,1.518416070E0,-4.160703242E-2,-2.500803264E0,2.925975986E0
1.148465604E1,1.204389600E0,5.212383449E-1,-1.936652642E0,2.339415990E0
1.149460004E1,9.237881523E-1,1.162308943E0,-1.135462037E0,1.869122967E0
1.150454404E1,8.090593493E-1,1.705902362E0,-2.564401857E-1,1.905371741E0
1.151448804E1,7.010852498E-1,2.219415951E0,5.273709047E-1,2.386513725E0
1.152443204E1,6.036314607E-1,2.445666944E0,1.105605569E0,2.751003710E0
1.153437604E1,3.713414633E-1,2.559611635E0,1.440624129E0,2.960558070E0
1.154432004E1,-2.960445285E-2,2.568205288E0,1.540460658E0,2.994924684E0
1.155426404E1,-6.161719841E-1,2.288843451E0,1.374923644E0,2.740234895E0
1.156420804E1,-1.161917764E0,1.885929946E0,1.212105585E0,2.525071207E0
1.157415204E1,-1.464262667E0,1.546614268E0,1.154420464E0,2.422553913E0
1.158409604E1,-1.645302404E0,1.397206798E0,1.048976455E0,2.399908007E0
1.159404004E1,-1.657728907E0,1.469860207E0,9.723766141E-1,2.419518637E0
1.160398696E1,-1.405129191E0,1.536583369E0,9.963409889E-1,2.308283314E0
1.161393096E1,-9.183683681E-1,1.713659863E0,1.059460512E0,2.214156084E0
1.162387496E1,-6.070789790E-1,2.172113146E0,1.142461739E0,2.528208699E0
1.163381896E1,-1.029286541E0,2.648316820E0,1.278950955E0,3.115883231E0
1.164376296E1,-2.193045008E0,2.233485521E0,1.830531671E0,3.626120541E0
1.165370696E1,-2.941158244E0,5.840520591E-1,2.793692050E0,4.098322083E0
1.166365096E1,-3.512327718E0,-7.284543121E-1,3.922388566E0,5.315282094E0
1.167359496E1,-4.074667895E0,-1.063872237E0,5.414700034E0,6.859571346E0
1.168353796E1,-4.177457269E0,-2.769527847E-1,6.367634218E0,7.620670417E0
1.169348196E1,-3.419736473E0,7.297664273E-1,4.925952913E0,6.040874827E0
1.170342596E1,-2.050220334E0,1.472076886E0,2.497525607E0,3.550781313E0
1.171336996E1,-7.735649961E-1,1.987608933E0,1.440040284E0,2.573462278E0
1.172331396E1,2.986114562E-2,1.952404602E0,1.234569418E0,2.310181176E0
1.173325796E1,3.252209651E-1,1.422050448E0,8.135514727E-1,1.670288045E0
1.174320196E1,-3.445430893E-1,4.359415019E-1,-9.959664747E-2,5.645125557E-1
1.175314596E1,-1.607023022E0,-6.340708959E-1,-1.124740874E0,2.061458447E0
1.176308996E1,-2.868586112E0,-1.672808291E0,-2.289902820E0,4.033699144E0
1.177303396E1,-3.783940825E0,-2.671084709E0,-3.103772235E0,5.575509284E0
1.178297796E1,-4.162407120E0,-3.487622062E0,-3.006117886E0,6.206922380E0
1.179292196E1,-4.346399701E0,-4.088956152E0,-2.264765640E0,6.382782792E0
1.180286596E1,-4.364972797E0,-4.455666620E0,-9.701790842E-1,6.312463862E0
1.181280996E1,-3.996693521E0,-4.531530735E0,5.876779175E-1,6.070724441E0
1.182275396E1,-3.382507251E0,-3.890228587E0,2.227059139E0,5.615605593E0
1.183269796E1,-3.081130062E0,-2.688688921E0,3.939113064E0,5.677941731E0
1.184264196E1,-3.019594549E0,-1.054669304E0,5.282599154E0,6.175445927E0
1.185258596E1,-2.786513423E0,8.306689042E-1,5.386625798E0,6.121307489E0
1.186252996E1,-2.979007856E0,2.042007335E0,4.656654718E0,5.893107408E0
1.187247396E1,-3.292513340E0,2.780747484E0,4.348773086E0,6.122501777E0
1.188241796E1,-3.164252910E0,3.290455120E0,4.821318158E0,6.639631025E0
1.189236196E1,-2.435561201E0,2.984256901E0,5.423177912E0,6.651962589E0
1.190230596E1,-1.704882023E0,1.870588607E0,5.283668025E0,5.858572543E0
1.191224996E1,-1.438815000E0,1.020040923E-1,4.112612232E0,4.358230468E0
1.192219396E1,-1.557786543E0,-1.896755481E0,2.633182472E0,3.599726406E0
1.193213796E1,-2.174632126E0,-3.911580865E0,9.349849856E-1,4.572054972E0
1.194208196E1,-3.209768806E0,-5.615272395E0,-1.177892211E0,6.574293112E0
1.195202596E1,-4.333151665E0,-6.695409831E0,-3.154042502E0,8.576287091E0
1.196196996E1,-5.227300866E0,-8.275936781E0,-3.921374951E0,1.054480846E1
1.197191396E1,-5.041388059E0,-9.318670748E0,-3.955288217E0,1.130917870E1
1.198185796E1,-3.154456485E0,-8.555988590E0,-3.699161168E0,9.840697628E0
1.199180196E1,-1.039336735E0,-7.273975448E0,-2.347861737E0,7.713844334E0
1.200174596E1,8.115637118E-1,-5.545520375E0,-2.389336038E-1,5.609681021E0
1.201168996E1,2.311682090E0,-3.543741884E0,1.097973198E0,4.371215594E0
1.202163396E1,3.250733230E0,-1.910054389E0,2.592672962E-1,3.779258370E0
1.203157796E1,3.403465426E0,-9.235256124E-1,-1.602804841E0,3.873688142E0
1.204152196E1,3.242100400E0,-3.547903347E-1,-2.956140565E0,4.401801702E0
1.205146596E1,3.048079845E0,1.669198805E-1,-3.809884921E0,4.881995094E0
1.206140996E1,2.929335759E0,6.691097510E-1,-4.115582033E0,5.095756206E0
1.207135396E1,2.846661977E0,1.085159025E0,-4.067889803E0,5.082202472E0
1.208129796E1,2.821597887E0,1.463508961E0,-4.125911724E0,5.208303051E0
1.209124196E1,2.870313379E0,1.808551403E0,-4.373556510E0,5.535120018E0
1.210118596E1,2.934640937E0,2.109704059E0,-4.420975382E0,5.710340793E0
1.211112996E1,2.888065526E0,2.363201323E0,-4.467703991E0,5.821170150E0
1.212107396E1,2.857205091E0,2.602433134E0,-4.656150688E0,6.051117118E0
1.213101796E1,2.889823199E0,2.812790810E0,-4.682587704E0,6.179765195E0
1.214096196E1,2.994996482E0,2.947720574E0,-4.655389088E0,6.271499667E0
1.215090596E1,3.276203116E0,2.938643941E0,-4.492735921E0,6.289182071E0
1.216084996E1,3.723917402E0,2.871396284E0,-4.377773229E0,6.424747145E0
1.217079396E1,4.205471864E0,2.748314733E0,-4.509347568E0,6.750810541E0
1.218073796E1,4.691962545E0,2.637489531E0,-4.760804446E0,7.185827894E0
1.219068196E1,5.169507571E0,2.527920896E0,-4.952741346E0,7.592354011E0
1.220062596E1,5.683121147E0,2.465372645E0,-5.160777093E0,8.062849896E0
1.221056996E1,6.260227883E0,2.568022855E0,-5.353004308E0,8.627853131E0
1.222051396E1,6.879713484E0,2.913274627E0,-5.549673067E0,9.306798474E0
1.223045696E1,7.443802564E0,3.331813645E0,-5.755664628E0,9.981926372E0
1.224040096E1,7.846489781E0,3.546358513E0,-5.760861633E0,1.036009591E1
1.225034496E1,7.778528178E0,3.179754463E0,-5.144678539E0,9.853124192E0
1.226028896E1,7.076452995E0,2.151260805E0,-4.036577379E0,8.426035068E0
1.227023296E1,5.154712946E0,3.490203023E-1,-2.380808458E0,5.688684351E0
1.228017696E1,1.569891449E0,-1.855246097E0,1.534946734E-1,2.435171012E0
1.229012096E1,-4.758799143E0,-4.131787006E0,4.623384061E0,7.816233961E0
1.230006496E1,-1.437341268E1,-7.440798265E0,1.294864737E1,2.072746824E1
1.231000896E1,-2.122510981E1,-1.060596042E1,1.713181093E1,2.926586115E1
1.231995296E1,-2.172938305E1,-1.053560438E1,1.649423288E1,2.924422619E1
1.232989696E1,-1.901591713E1,-5.514414942E0,1.509166711E1,2.489522630E1
1.233984096E1,-1.157414823E1,1.143746372E0,1.317879962E1,1.757696853E1
1.234978496E1,-6.396040576E0,5.238340994E0,1.030366638E1,1.321041606E1
1.235972896E1,-3.673832492E0,7.764711208E0,6.457823426E0,1.074668641E1
1.236967296E1,-2.189818515E0,8.041336548E0,5.431963938E-1,8.351853742E0
1.237961696E1,-1.373722041E0,6.701334230E0,-3.629977205E0,7.744141477E0
1.238956096E1,-9.939541554E-1,4.716443667E0,-6.703471972E0,8.256471535E0
1.239950496E1,-5.428853220E-1,2.631914796E0,-9.277795202E0,9.659150262E0
1.240944896E1,-1.371136987E-1,1.070486022E0,-1.061056334E1,1.066530801E1
1.241939296E1,3.219079328E-1,-8.377188921E-2,-1.152236412E1,1.152716432E1
1.242933696E1,1.089826273E0,-1.691767888E0,-1.182357525E1,1.199361211E1
1.243928096E1,1.733839189E0,-5.403778020E0,-8.793113065E0,1.046545998E1
1.244922496E1,2.418546388E0,-7.188074003E0,-2.908390740E0,8.122592640E0
1.245916896E1,3.309677256E0,-6.794363431E0,8.545869398E-1,7.605764709E0
1.246911296E1,4.344379488E0,-6.621116279E0,4.740926544E0,9.229799478E0
1.247905696E1,5.481896821E0,-5.944472390E0,7.455294097E0,1.099860695E1
1.248900096E1,5.899542385E0,-4.399357349E0,5.153661032E0,8.984384646E0
1.249894496E1,4.690444023E0,-2.962314055E0,3.105886003E-1,5.556260880E0
1.250888896E1,3.473684639E0,-2.210228806E0,-2.389926606E0,4.760603483E0
1.251883296E1,3.670184999E0,-1.931866257E0,-3.018487379E0,5.129681395E0
1.252877696E1,3.846279160E0,-2.043086146E0,-3.320539629E0,5.476682190E0
1.253872096E1,3.046052615E0,-2.485597579E0,-3.763067434E0,5.442178642E0
1.254866496E1,1.634496750E0,-2.881637097E0,-4.353068743E0,5.470339977E0
1.255860896E1,7.000163788E-1,-3.038606771E0,-4.766187977E0,5.695586175E0
1.256855296E1,2.671581137E-1,-2.857731925E0,-5.113814596E0,5.864222449E0
1.257849696E1,2.513437343E-1,-2.204269908E0,-5.373643225E0,5.813606541E0
1.258844096E1,3.870125860E-1,-1.202019138E0,-5.281008711E0,5.429887822E0
1.259838496E1,7.061547858E-1,-1.908800161E-1,-4.652552311E0,4.709706230E0
1.260832571E1,1.069559239E0,5.466538525E-1,-3.836366376E0,4.020011737E0
1.261826971E1,1.221349449E0,1.002031499E0,-3.094634791E0,3.474554085E0
1.262821371E1,1.251832738E0,1.418160880E0,-2.389399188E0,3.047539001E0
1.263815771E1,1.297317644E0,1.851768174E0,-1.650687105E0,2.799436793E0
1.264810171E1,1.272060596E0,2.380554689E0,-9.457912248E-1,2.860017452E0
1.265804571E1,1.269311235E0,2.784503151E0,-2.207276948E-1,3.068114979E0
1.266798971E1,1.241888378E0,2.877305480E0,4.786881566E-1,3.170223323E0
1.267793371E1,9.912053794E-1,2.685147847E0,1.021648908E0,3.039123814E0
1.268787771E1,4.526662928E-1,2.296876355E0,1.249266980E0,2.653528924E0
1.269782171E1,-2.404451090E-1,1.765914676E0,1.227827725E0,2.164215658E0
1.270776571E1,-1.011830848E0,1.279487729E0,1.233954291E0,2.045368844E0
1.271770971E1,-1.770557950E0,8.936112571E-1,1.272459376E0,2.356389058E0
1.272765371E1,-2.347699769E0,6.625222778E-1,1.334166358E0,2.780401023E0
1.273759771E1,-2.487815428E0,7.398107743E-1,1.557034006E0,3.026697951E0
1.274754171E1,-2.113125849E0,1.140677753E0,1.920790315E0,3.075041793E0
1.275748571E1,-1.546347635E0,1.714764987E0,2.325985988E0,3.277471706E0
1.276742871E1,-1.321210536E0,2.305526142E0,2.730960782E0,3.810406128E0
1.277737371E1,-1.596407987E0,2.105753095E0,3.272158305E0,4.205916610E0
1.278731671E1,-1.948461240E0,9.597461897E-1,3.798417946E0,4.375567717E0
1.279726071E1,-2.190747052E0,-1.442391157E-2,4.411076338E0,4.925157374E0
1.280720471E1,-2.406595264E0,-2.556180489E-1,5.113667246E0,5.657440592E0
1.281714871E1,-2.525558621E0,4.335400504E-1,5.204627702E0,5.801254420E0
1.282709271E1,-2.608898985E0,1.428915079E0,4.117894607E0,5.079882697E0
1.283703671E1,-2.336847337E0,2.048976631E0,2.544591015E0,4.016728040E0
1.284698071E1,-1.756173214E0,2.194688661E0,1.454922617E0,3.165059636E0
1.285692471E1,-1.397593884E0,2.029746308E0,8.262943098E-1,2.599211616E0
1.286686871E1,-9.858955228E-1,1.478749144E0,4.986040655E-1,1.845885973E0
1.287681271E1,-1.058532559E0,6.955298102E-1,4.853422880E-2,1.267520598E0
1.288675671E1,-1.586656585E0,-1.235855806E-1,-5.878846166E-1,1.696573263E0
1.289670071E1,-2.297066975E0,-9.192951518E-1,-1.128050399E0,2.719212747E0
1.290664471E1,-3.019323823E0,-1.709696036E0,-1.517413127E0,3.787072679E0
1.291658871E1,-3.480469163E0,-2.481517977E0,-1.663971687E0,4.586981452E0
1.292653271E1,-3.566240215E0,-3.127478601E0,-1.312787330E0,4.921646295E0
1.293647671E1,-3.417263101E0,-3.555902923E0,-3.509194779E-1,4.944216538E0
1.294642071E1,-3.448273809E0,-3.963802933E0,1.019572123E0,5.351808411E0
1.295636471E1,-4.174960508E0,-4.403707677E0,2.295584267E0,6.487884376E0
1.296630871E1,-5.344561513E0,-4.391997458E0,3.359070733E0,7.690080340E0
1.297625271E1,-5.741516705E0,-3.292740211E0,4.243301010E0,7.862108854E0
1.298619671E1,-5.107208412E0,-1.337329556E0,4.608877996E0,7.008122750E0
1.299614071E1,-4.365487937E0,6.248989534E-1,4.208894824E0,6.096128219E0
1.300608471E1,-3.711534169E0,2.192190730E0,3.517836964E0,5.563844263E0
1.301602871E1,-3.110176690E0,3.271308412E0,2.974790844E0,5.405926224E0
1.302597271E1,-2.698957801E0,4.082184491E0,2.723525462E0,5.600553042E0
1.303591671E1,-2.373753208E0,4.670944728E0,2.863236494E0,5.970808335E0
1.304586071E1,-1.928752030E0,4.458705418E0,3.388682495E0,5.923116363E0
1.305580471E1,-1.572808625E0,3.065734343E0,3.820431544E0,5.144720713E0
1.306574871E1,-1.563707433E0,8.589173877E-1,3.614785554E0,4.031078592E0
1.307569271E1,-1.914075519E0,-1.635274429E0,2.980600052E0,3.901510505E0
1.308563671E1,-2.819337938E0,-4.109224355E0,1.374628213E0,5.169525504E0
1.309558071E1,-4.025463576E0,-5.905990695E0,-1.164935512E0,7.241695784E0
1.310552471E1,-5.126503054E0,-7.108124439E0,-2.727379362E0,9.178511033E0
1.311546871E1,-6.111467700E0,-8.621223051E0,-3.069705187E0,1.100448155E1
1.312541271E1,-5.450197311E0,-9.199893917E0,-2.709319652E0,1.103100684E1
1.313535671E1,-3.037137365E0,-8.034325152E0,-2.203296639E0,8.867305121E0
1.314530071E1,-9.247371554E-1,-6.512487291E0,-1.797630266E0,6.819025157E0
1.315524471E1,7.602731055E-1,-4.798681247E0,-1.257777310E0,5.018701094E0
1.316518871E1,2.130399694E0,-2.890241860E0,-9.051928371E-1,3.702900881E0
1.317513271E1,2.954925513E0,-1.290942425E0,-1.492588334E0,3.553299462E0
1.318507671E1,3.220286778E0,-2.363853872E-1,-2.629211628E0,4.163997931E0
1.319502071E1,3.277705851E0,4.304655844E-1,-3.429061905E0,4.763100021E0
1.320496471E1,3.253162163E0,8.604663152E-1,-3.857917166E0,5.119276433E0
1.321490871E1,3.175555578E0,1.216025559E0,-4.055446051E0,5.292401540E0
1.322485271E1,3.159044795E0,1.511602310E0,-3.918660089E0,5.255511626E0
1.323479671E1,3.202062761E0,1.755700759E0,-3.630516318E0,5.149401889E0
1.324474071E1,3.287782357E0,2.034790701E0,-3.366083007E0,5.126441342E0
1.325468471E1,3.316446578E0,2.252777824E0,-3.247986792E0,5.159771704E0
1.326462871E1,3.260015100E0,2.462003480E0,-3.261062921E0,5.227206803E0
1.327457271E1,3.174220074E0,2.629794595E0,-3.401713015E0,5.344449843E0
1.328451671E1,3.152506438E0,2.662731961E0,-3.460357665E0,5.385398176E0
1.329446071E1,3.224640614E0,2.524542959E0,-3.534756760E0,5.409817889E0
1.330440471E1,3.399168307E0,2.269233643E0,-3.719405106E0,5.526096348E0
1.331434871E1,3.696892741E0,1.992533458E0,-3.957784978E0,5.770725037E0
1.332429271E1,4.082479191E0,1.849150960E0,-4.300519231E0,6.211317193E0
1.333423571E1,4.538008280E0,1.941795999E0,-4.762631701E0,6.859063462E0
1.334417971E1,5.029872553E0,2.200563358E0,-5.391338654E0,7.694714385E0
1.335412371E1,5.580449887E0,2.543984367E0,-6.125285255E0,8.667894603E0
1.336406771E1,6.281870182E0,2.881792048E0,-6.787722164E0,9.687094021E0
1.337401171E1,7.091076297E0,3.167431456E0,-7.148277268E0,1.055527607E1
1.338395571E1,7.915896231E0,3.253300157E0,-7.203066849E0,1.118613191E1
1.339389971E1,8.527530191E0,3.027488875E0,-6.810111737E0,1.132528507E1
1.340384371E1,8.437132237E0,2.254717931E0,-5.576305965E0,1.036166693E1
1.341378771E1,7.328704217E0,9.730328178E-1,-3.751496964E0,8.290381646E0
1.342373171E1,4.285605615E0,-6.847528070E-1,-1.157327700E0,4.491626576E0
1.343367571E1,-1.559766995E0,-2.718246011E0,4.739412992E0,5.681880848E0
1.344361971E1,-1.168039565E1,-5.509795057E0,1.398789289E1,1.903813624E1
1.345356371E1,-2.043037497E1,-8.715436313E0,1.731314245E1,2.816210136E1
1.346350771E1,-2.159934331E1,-1.009131890E1,1.647598255E1,2.897972308E1
1.347345171E1,-2.354894066E1,-9.087011080E0,1.614091838E1,2.996090157E1
1.348339571E1,-1.786146977E1,-3.777636357E0,1.604837684E1,2.430746877E1
1.349333971E1,-9.521939260E0,-2.165779442E-1,1.450114160E1,1.734927494E1
1.350328371E1,-6.110107053E0,4.421424741E-1,1.083073440E1,1.244321927E1
1.351322771E1,-4.684782164E0,-1.202678704E-1,5.761845719E0,7.427012480E0
1.352317171E1,-4.427517539E0,-1.397613764E0,-2.585782895E0,5.314368163E0
1.353311571E1,-3.805089619E0,-2.263350760E0,-9.439326289E0,1.042604165E1
1.354305971E1,-2.398746547E0,-1.374365235E0,-1.222717229E1,1.253581298E1
1.355300371E1,-6.008031625E-1,2.137958390E-1,-1.312209917E1,1.313758577E1
1.356294771E1,1.434399768E0,1.739588757E0,-1.318055496E1,1.337201184E1
1.357289171E1,3.980421889E0,3.012358035E0,-1.221150760E1,1.319238330E1
1.358283571E1,8.224460818E0,3.378494892E0,-1.024126022E1,1.356242583E1
1.359277971E1,1.046933087E1,3.031798273E0,-7.932129271E0,1.348025832E1
1.360272358E1,9.382752138E0,2.036147840E0,-6.279162337E0,1.147213212E1
1.361266758E1,8.329228304E0,4.963970339E-1,-5.596510434E0,1.004705843E1
1.362261158E1,6.909867575E0,-1.408013622E0,-5.732197412E0,9.087731259E0
1.363255558E1,4.767627270E0,-3.705901546E0,-6.104578511E0,8.586609042E0
1.364249958E1,1.612009528E0,-5.611815521E0,-6.183890144E0,8.504795440E0
1.365244358E1,-1.423159080E0,-6.544255798E0,-5.069261152E0,8.399409166E0
1.366238758E1,-2.719899604E0,-6.335580951E0,-3.269662713E0,7.630736144E0
1.367233158E1,-1.854050927E0,-4.730345423E0,-1.671537107E0,5.348617481E0
1.368227558E1,-1.194475061E-1,-2.734524660E0,8.658893153E-2,2.738501500E0
1.369221958E1,8.184417915E-1,-1.037837509E0,1.633411360E0,2.101186887E0
1.370216358E1,1.166341767E0,4.357345104E-1,2.576158671E0,2.861260418E0
1.371210758E1,1.355193969E0,1.362330496E0,2.615879391E0,3.245815778E0
1.372205158E1,1.300401465E0,1.592497369E0,1.866811305E0,2.777062529E0
1.373199558E1,9.829689914E-1,1.551896058E0,1.070902344E0,2.126368087E0
1.374193958E1,6.495467216E-1,1.786562364E0,5.937204301E-1,1.991537088E0
1.375188358E1,2.055904412E-1,2.073774673E0,2.020365036E-1,2.093711435E0
1.376182758E1,-6.932108045E-2,2.362710156E0,-2.582258705E-1,2.377790002E0
1.377177158E1,4.815591395E-2,2.892055081E0,-4.974208814E-1,2.934915521E0
1.378171558E1,3.352851927E-2,3.217483038E0,-7.309347010E-1,3.299634343E0
1.379165958E1,3.208051479E-1,3.260781670E0,-6.903328049E-1,3.348458216E0
1.380160358E1,6.791242772E-1,3.215542932E0,-5.429443423E-1,3.331023069E0
1.381154758E1,7.125890619E-1,3.090925317E0,-7.004637638E-1,3.248422998E0
1.382149158E1,4.739846563E-1,2.947779046E0,-1.003717763E0,3.149843188E0
1.383143558E1,1.980978191E-1,2.781577204E0,-1.103171958E0,2.998900274E0
1.384137958E1,-4.446982920E-2,2.653241345E0,-9.218498734E-1,2.809176817E0
1.385132358E1,-2.202827400E-1,2.490692258E0,-5.985913070E-1,2.571066698E0
1.386126758E1,-6.151007742E-1,2.493428755E0,-1.576350868E-1,2.573010832E0
1.387121158E1,-1.464780146E0,2.507975459E0,4.013951285E-1,2.932002699E0
1.388115458E1,-2.229325812E0,1.875500268E0,1.345028000E0,3.208815225E0
1.389109858E1,-2.524300300E0,7.783953810E-1,2.462363083E0,3.611263398E0
1.390104358E1,-2.436628318E0,-3.011725366E-1,3.667338574E0,4.413302015E0
1.391098658E1,-2.437008387E0,-1.073277483E0,5.108451530E0,5.760834268E0
1.392093058E1,-2.657754811E0,-1.168002377E0,6.418301511E0,7.044322854E0
1.393087458E1,-2.790441290E0,-4.795833653E-1,6.376096308E0,6.976472384E0
1.394081858E1,-2.293669742E0,3.718039781E-1,4.239208252E0,4.834257511E0
1.395076258E1,-1.450621990E0,9.512881923E-1,2.079451150E0,2.708019658E0
1.396070658E1,-7.864566448E-1,1.056982462E0,8.128001055E-1,1.548021315E0
1.397065058E1,-7.106664973E-1,5.004199183E-1,-4.429002732E-2,8.703037238E-1
1.398059458E1,-1.310488205E0,-4.705985337E-1,-9.686225554E-1,1.696193376E0
1.399053858E1,-2.189782262E0,-1.250880226E0,-1.605993181E0,2.989826382E0
1.400048258E1,-3.242681906E0,-1.575289013E0,-1.803551449E0,4.031044436E0
1.401042658E1,-4.683126525E0,-1.685262861E0,-1.123807951E0,5.102423862E0
1.402037058E1,-5.994133378E0,-1.613463730E0,2.634582880E-1,6.213075762E0
1.403031458E1,-6.411110020E0,-1.312444975E0,1.627108646E0,6.743317140E0
1.404025858E1,-6.503632268E0,-1.112458506E0,2.632031155E0,7.103688099E0
1.405020258E1,-7.139717529E0,-1.410346661E0,3.023485871E0,7.880743043E0
1.406014658E1,-7.795459961E0,-2.043107196E0,2.889467981E0,8.561104381E0
1.407009058E1,-7.335907402E0,-2.391844493E0,2.837038629E0,8.221024612E0
1.408003458E1,-6.086739825E0,-2.034430513E0,2.949670913E0,7.063134411E0
1.408997858E1,-4.650188867E0,-9.897359741E-1,2.820414410E0,5.527980756E0
1.409992258E1,-3.393366407E0,3.581086296E-1,2.511439641E0,4.236803800E0
1.410986658E1,-2.618577004E0,1.496667936E0,2.330940041E0,3.811855443E0
1.411981058E1,-2.026843750E0,2.366936524E0,2.728680367E0,4.142002009E0
1.412975458E1,-1.325424625E0,2.651257970E0,3.626512145E0,4.683749523E0
1.413969858E1,-8.272488678E-1,2.021140376E0,4.174165871E0,4.710945747E0
1.414964258E1,-7.466894388E-1,5.125137144E-1,4.072806727E0,4.172285951E0
1.415958658E1,-8.134564555E-1,-1.448146572E0,2.945037287E0,3.381136572E0
1.416953058E1,-1.193787428E0,-3.477660161E0,1.275095301E0,3.891672731E0
1.417947458E1,-2.029210119E0,-5.410443846E0,-7.240765748E-1,5.823648616E0
1.418941858E1,-2.987369959E0,-6.711332969E0,-2.922933642E0,7.906320925E0
1.419936258E1,-4.172754938E0,-8.225615058E0,-4.471549412E0,1.025023809E1
1.420930658E1,-5.138992122E0,-1.023446926E1,-4.585328043E0,1.233607857E1
1.421925058E1,-4.206623765E0,-1.062791554E1,-3.208688241E0,1.187198183E1
1.422919458E1,-1.845278349E0,-9.273164207E0,-1.197942167E0,9.530566197E0
1.423913858E1,2.175520903E-1,-7.645576528E0,5.190526557E-1,7.666262780E0
1.424908258E1,1.776671214E0,-5.814993986E0,1.282239721E0,6.214085159E0
1.425902658E1,2.732333708E0,-3.853514505E0,3.539451197E-1,4.737140348E0
1.426897058E1,3.095936966E0,-2.362051175E0,-1.670557698E0,4.237319256E0
1.427891458E1,3.215604327E0,-1.299267690E0,-3.197408669E0,4.717163334E0
1.428885858E1,3.287749613E0,-3.193345731E-1,-4.158417565E0,5.310716405E0
1.429880258E1,3.414703774E0,5.742468631E-1,-4.555170151E0,5.721847292E0
1.430874658E1,3.599640096E0,1.347107854E0,-4.544579381E0,5.951916510E0
1.431869058E1,3.748613702E0,2.014966886E0,-4.304452653E0,6.053140415E0
1.432863458E1,3.808855811E0,2.530080273E0,-4.105265790E0,6.145070869E0
1.433857858E1,3.670949814E0,3.049860907E0,-3.844582883E0,6.128486080E0
1.434852258E1,3.418603867E0,3.522424690E0,-3.580919650E0,6.075961951E0
1.435846658E1,3.176729699E0,3.896693854E0,-3.747164177E0,6.270332841E0
1.436841058E1,3.029638311E0,4.084590036E0,-4.049750278E0,6.501004643E0
1.437835458E1,2.970984306E0,4.064925849E0,-4.300894915E0,6.621787295E0
1.438829858E1,3.071437717E0,3.940287185E0,-4.475544522E0,6.707465357E0
1.439824258E1,3.246024467E0,3.718927973E0,-4.640612297E0,6.775129711E0
1.440818658E1,3.438687299E0,3.416189552E0,-4.815367739E0,6.832473041E0
1.441813058E1,3.730058733E0,3.156273800E0,-5.097697331E0,7.061297368E0
1.442807458E1,4.106293731E0,3.055094165E0,-5.534776701E0,7.538501289E0
1.443801858E1,4.571159070E0,3.099261693E0,-6.077156239E0,8.211744408E0
1.444796258E1,5.165441417E0,3.330556494E0,-6.592721615E0,9.013233043E0
1.445790658E1,5.923366281E0,3.666403604E0,-6.977979451E0,9.860070015E0
1.446785058E1,6.758541634E0,3.939680829E0,-7.237432104E0,1.065736335E1
1.447779358E1,7.488291104E0,4.051884804E0,-7.268684887E0,1.119491197E1
1.448773858E1,8.015635112E0,3.807713265E0,-6.881405668E0,1.122955166E1
1.449768158E1,7.807084225E0,2.969268733E0,-5.908563470E0,1.023123860E1
1.450762558E1,6.701086308E0,1.679691049E0,-4.453917426E0,8.219689785E0
1.451756958E1,4.221047677E0,-2.515939951E-1,-2.231827835E0,4.781380399E0
1.452751358E1,-1.037568537E0,-2.565883359E0,3.507978851E0,4.468357808E0
1.453745758E1,-1.279451126E1,-5.405588903E0,1.672376884E1,2.173946535E1
1.454740158E1,-2.269639089E1,-1.017580649E1,2.460881399E1,3.498952591E1
1.455734558E1,-2.021539624E1,-1.172325106E1,2.066495123E1,3.119514498E1
1.456728958E1,-2.118709122E1,-1.066721351E1,1.924202896E1,3.054403308E1
1.457723358E1,-1.340671123E1,-4.142344739E0,1.484514382E1,2.042736451E1
1.458717758E1,-5.218449351E0,1.308926121E0,8.486115532E0,1.004786833E1
1.459712158E1,-1.299001642E0,4.343642154E0,6.207949097E0,7.687214347E0
1.460706567E1,3.693803072E-1,4.950210087E0,5.345770133E0,7.295086019E0
1.461700967E1,-2.457052642E-1,2.795942059E0,-5.888730884E-2,2.807335175E0
1.462695367E1,-1.488783551E0,-2.330185604E-1,-6.041578270E0,6.226671832E0
1.463689767E1,-2.373833315E0,-2.564148490E0,-9.950929592E0,1.054660807E1
1.464684167E1,-3.137816479E0,-3.599069408E0,-1.247532345E1,1.335787737E1
1.465678567E1,-3.616806936E0,-3.894219312E0,-1.380032473E1,1.478834674E1
1.466672967E1,-2.193865957E0,-3.215843478E0,-1.194405713E1,1.256245190E1
1.467667367E1,8.961776000E-1,-1.893961097E0,-7.227407638E0,7.525001269E0
1.468661767E1,3.824727493E0,-1.025109875E0,-2.569530267E0,4.720368253E0
1.469656167E1,6.600793111E0,-7.002397424E-1,8.284127560E-1,6.689325309E0
1.470650567E1,8.117269660E0,-8.058047891E-1,1.079868464E0,8.228335433E0
1.471644967E1,6.931056715E0,-1.624100985E0,-8.868863744E-1,7.173828730E0
1.472639367E1,4.092896590E0,-2.621595629E0,-3.164282731E0,5.799763042E0
1.473633767E1,2.364132784E0,-3.300195996E0,-4.706341141E0,6.215308871E0
1.474628167E1,2.279213086E0,-3.584005811E0,-5.006477258E0,6.565418835E0
1.475622567E1,3.049360970E0,-3.540565676E0,-4.404049447E0,6.421048136E0
1.476616967E1,2.799471438E0,-3.615064466E0,-3.970282232E0,6.055482840E0
1.477611367E1,1.750980887E0,-3.439377270E0,-3.972996802E0,5.538948787E0
1.478605767E1,1.265813431E0,-2.802955794E0,-4.128748793E0,5.148340647E0
1.479600167E1,1.288748549E0,-1.946404774E0,-4.075989074E0,4.697132242E0
1.480594567E1,1.268893159E0,-9.648981714E-1,-3.790552272E0,4.112104674E0
1.481588967E1,1.026843574E0,2.154465079E-2,-3.483202736E0,3.631469840E0
1.482583367E1,1.003576334E0,9.962813473E-1,-3.011173389E0,3.326696133E0
1.483577767E1,1.280022749E0,1.932403032E0,-2.335982972E0,3.290813906E0
1.484572167E1,1.534796460E0,2.597337871E0,-1.529167930E0,3.382324459E0
1.485566567E1,1.681702491E0,2.794711220E0,-8.363852153E-1,3.367205711E0
1.486560967E1,1.703999678E0,2.746706164E0,-3.013005541E-1,3.246350517E0
1.487555367E1,1.603998842E0,2.633763101E0,1.123817215E-1,3.085798115E0
1.488549767E1,1.362560876E0,2.530725220E0,3.488682747E-1,2.895315416E0
1.489544167E1,1.060441090E0,2.376841707E0,3.771360906E-1,2.629856163E0
1.490538567E1,7.593241024E-1,2.173220024E0,4.139068544E-1,2.338969270E0
1.491532967E1,3.880229849E-1,2.052352229E0,6.089875833E-1,2.175678603E0
1.492527367E1,-3.074173629E-2,1.961868905E0,7.301477388E-1,2.093559260E0
1.493521767E1,-6.022421622E-1,1.940126034E0,7.669991577E-1,2.171421736E0
1.494516167E1,-1.176296652E0,1.786795083E0,6.859777256E-1,2.246525299E0
1.495510567E1,-1.457895634E0,1.642307460E0,5.530504871E-1,2.264618801E0
1.496504967E1,-1.616615379E0,1.744802719E0,6.189837639E-1,2.457828862E0
1.497499367E1,-1.872638640E0,2.084867426E0,9.590402846E-1,2.961959812E0
1.498493767E1,-2.497332941E0,2.517657278E0,1.552047501E0,3.870932889E0
1.499488167E1,-2.966500661E0,1.898903164E0,2.506445242E0,4.322988220E0
1.500482567E1,-2.887203646E0,9.125983357E-1,3.588813976E0,4.695568802E0
1.501476967E1,-3.014483498E0,3.370434505E-1,4.664292351E0,5.563841495E0
1.502471367E1,-3.571038733E0,4.803949589E-1,5.593123727E0,6.653279640E0
1.503465767E1,-4.079952024E0,1.047247433E0,5.483412420E0,6.914517154E0
1.504460167E1,-3.766938876E0,1.270079559E0,3.823008704E0,5.515281147E0
1.505454567E1,-2.806776072E0,1.199516530E0,2.281876055E0,3.811009073E0
1.506448967E1,-1.613478641E0,9.193162018E-1,1.711034756E0,2.525093174E0
1.507443267E1,-8.305329564E-1,3.245929742E-1,1.282260186E0,1.561837628E0
1.508437767E1,-8.732673320E-1,-4.505993021E-1,4.250190492E-1,1.070643151E0
1.509432067E1,-1.757687351E0,-1.316093638E0,-9.031161985E-1,2.374275922E0
1.510426467E1,-2.930780606E0,-2.121875623E0,-1.978377349E0,4.123809895E0
1.511420867E1,-4.086229303E0,-2.872685595E0,-1.992075329E0,5.377541869E0
1.512415267E1,-4.856262288E0,-3.413794532E0,-1.323103280E0,6.081766093E0
1.513409667E1,-5.187664930E0,-3.578988900E0,-9.327741534E-2,6.303152357E0
1.514404067E1,-5.805005772E0,-3.845337174E0,1.270088915E0,7.077982470E0
1.515398467E1,-6.977238024E0,-4.282642831E0,2.635840616E0,8.600612526E0
1.516392867E1,-7.866256294E0,-4.083979002E0,4.050568596E0,9.744946306E0
1.517387267E1,-7.063725945E0,-2.364736801E0,5.179212195E0,9.072620533E0
1.518381667E1,-5.335905295E0,8.485479355E-3,5.135843396E0,7.406000588E0
1.519376067E1,-4.060277313E0,1.997711168E0,3.843401746E0,5.937039561E0
1.520370467E1,-3.177068837E0,3.401220680E0,2.604752140E0,5.333554370E0
1.521364867E1,-2.387623973E0,4.487260296E0,2.179990661E0,5.530697287E0
1.522359267E1,-1.785339126E0,5.270641598E0,2.549591846E0,6.121071575E0
1.523353667E1,-1.316982999E0,4.997342153E0,3.170023527E0,6.062748715E0
1.524348067E1,-1.266527376E0,3.450139655E0,3.653661937E0,5.182354753E0
1.525342467E1,-1.544737896E0,9.574774700E-1,3.195696897E0,3.676337434E0
1.526336867E1,-2.258042073E0,-1.809919066E0,1.811730972E0,3.414224677E0
1.527331267E1,-3.455995057E0,-4.399048616E0,-4.418659008E-1,5.611664284E0
1.528325667E1,-4.702315040E0,-6.308283225E0,-2.589877993E0,8.283337009E0
1.529320067E1,-6.527875993E0,-8.594058641E0,-3.797124542E0,1.144068021E1
1.530314467E1,-8.085763108E0,-1.149388116E1,-3.953980195E0,1.459872695E1
1.531308867E1,-7.010498157E0,-1.273348620E1,-3.332248386E0,1.491283456E1
1.532303267E1,-3.939264507E0,-1.139482231E1,-2.123016707E0,1.224201701E1
1.533297667E1,-9.812376308E-1,-9.090542214E0,-7.627891624E-1,9.175109391E0
1.534292067E1,1.475196376E0,-6.472071337E0,1.424036747E-1,6.639592649E0
1.535286467E1,3.227391729E0,-3.963055074E0,-2.826497269E-1,5.118764867E0
1.536280867E1,3.970412625E0,-2.095964271E0,-1.926851100E0,4.885693175E0
1.537275267E1,4.117917411E0,-7.710325670E-1,-3.038316749E0,5.175239481E0
1.538269667E1,4.077914854E0,3.146661562E-1,-3.870525225E0,5.631107339E0
1.539264067E1,4.047852564E0,1.186687154E0,-4.290193048E0,6.016568223E0
1.540258467E1,3.983791054E0,1.895600656E0,-4.223458484E0,6.107494951E0
1.541252867E1,3.885994034E0,2.410456765E0,-4.021630141E0,6.089725810E0
1.542247267E1,3.799375720E0,2.788733611E0,-3.933107389E0,6.138536043E0
1.543241667E1,3.693432359E0,3.096041046E0,-3.813148252E0,6.145487152E0
1.544236067E1,3.427060695E0,3.387449902E0,-3.886466489E0,6.190652923E0
1.545230467E1,3.115283064E0,3.662799965E0,-4.301959400E0,6.451972321E0
1.546224867E1,2.912254872E0,3.877899148E0,-4.654453241E0,6.721849836E0
1.547219267E1,2.825996747E0,3.941644909E0,-4.980983398E0,6.952195179E0
1.548213667E1,2.905635824E0,3.784388722E0,-5.464074508E0,7.253993918E0
1.549208067E1,3.140644192E0,3.478531396E0,-5.864107674E0,7.506769307E0
1.550202467E1,3.467135757E0,3.137777302E0,-6.137809991E0,7.716177049E0
1.551196867E1,3.911980230E0,2.817615933E0,-6.439401188E0,8.044155427E0
1.552191267E1,4.436005942E0,2.590522356E0,-6.712031127E0,8.452237375E0
1.553185667E1,5.019237052E0,2.534566256E0,-6.953929853E0,8.942813154E0
1.554180067E1,5.628049731E0,2.653079962E0,-7.165939953E0,9.490230369E0
1.555174467E1,6.294912397E0,2.794828749E0,-7.252214450E0,1.000158009E1
1.556168867E1,7.074220528E0,2.906809945E0,-6.992555391E0,1.036291325E1
1.557163267E1,7.921953362E0,2.892946197E0,-6.660848109E0,1.074678465E1
1.558157667E1,8.620592136E0,2.589461671E0,-6.226492957E0,1.094482230E1
1.559152067E1,8.833568196E0,1.673492416E0,-4.747809302E0,1.016731022E1
1.560146467E1,8.213801928E0,1.043213439E-1,-2.586258566E0,8.611977614E0
1.561140942E1,5.789967318E0,-1.982201428E0,-3.250356084E-1,6.128498364E0
1.562135342E1,1.075470774E0,-4.187101666E0,3.553613445E0,5.596126005E0
1.563129742E1,-7.797891233E0,-6.741054951E0,1.296351216E1,1.656205232E1
1.564124142E1,-1.837916120E1,-1.043464869E1,1.994768264E1,2.906175326E1
1.565118542E1,-2.157128837E1,-1.198149568E1,1.612339077E1,2.947609965E1
1.566112942E1,-2.193633940E1,-1.000488770E1,1.496767339E1,2.837837224E1
1.567107342E1,-1.693419610E1,-2.802114964E0,1.240908502E1,2.118027943E1
1.568101742E1,-8.932239960E0,3.568767967E0,8.701601801E0,1.297069348E1
1.569096142E1,-4.771057831E0,7.198323002E0,5.745119759E0,1.037233088E1
1.570090442E1,-2.363220034E0,8.746869190E0,4.095863467E0,9.943270443E0
1.571084842E1,-1.930279323E0,7.419236657E0,9.223143616E-1,7.721509867E0
1.572079242E1,-2.480546755E0,4.396928415E0,-3.687111518E0,6.251470470E0
1.573073642E1,-2.911695879E0,1.277307887E0,-7.142728261E0,7.818443281E0
1.574068042E1,-2.905369776E0,-1.168387708E0,-9.496226714E0,9.999231229E0
1.575062442E1,-2.920070261E0,-3.078504077E0,-1.124282862E1,1.201687118E1
1.576056842E1,-2.503335108E0,-5.173360886E0,-1.131816766E1,1.269374919E1
1.577051242E1,-1.573900884E-1,-5.937558643E0,-8.344942696E0,1.024292160E1
1.578045642E1,3.255624425E0,-4.484586364E0,-3.723484708E0,6.676446931E0
1.579040042E1,6.439652619E0,-3.585356517E0,4.811913496E-1,7.386166280E0
1.580034442E1,8.888063661E0,-3.136375725E0,3.056595145E0,9.908446004E0
1.581028842E1,8.366395546E0,-2.692277942E0,1.176315363E0,8.867279897E0
1.582023242E1,4.443424305E0,-2.685427344E0,-2.819191465E0,5.907908267E0
1.583017642E1,2.146673080E0,-3.158867040E0,-4.944197395E0,6.247538248E0
1.584012042E1,2.253896397E0,-3.278510427E0,-5.340038692E0,6.659181092E0
1.585006442E1,3.036190116E0,-3.269506300E0,-4.985899737E0,6.690838367E0
1.586000842E1,3.680856167E0,-3.563279770E0,-4.735793858E0,6.976633021E0
1.586995242E1,3.118411909E0,-3.918922044E0,-4.969315864E0,7.055249321E0
1.587989642E1,2.195610182E0,-3.629488962E0,-5.305142509E0,6.792527603E0
1.588984042E1,2.138120357E0,-2.825126097E0,-5.421807325E0,6.476796337E0
1.589978442E1,2.287231373E0,-1.948747754E0,-5.203988602E0,6.009204816E0
1.590972842E1,2.092358878E0,-1.142250069E0,-4.593893336E0,5.175573097E0
1.591967242E1,1.725302255E0,-3.818869168E-1,-3.891133444E0,4.273572857E0
1.592961642E1,1.471001583E0,3.171675950E-1,-3.169917693E0,3.508962684E0
1.593956042E1,1.415697448E0,9.239255619E-1,-2.470923407E0,2.993877117E0
1.594950442E1,1.412578543E0,1.428011684E0,-1.757612799E0,2.669044447E0
1.595944842E1,1.331577065E0,1.814781026E0,-8.887821148E-1,2.420012665E0
1.596939242E1,1.062790502E0,2.036146671E0,1.632799522E-1,2.302623994E0
1.597933642E1,7.831848353E-1,2.308095993E0,1.143374489E0,2.692209282E0
1.598928042E1,5.035429162E-1,2.544193697E0,1.808514565E0,3.161835222E0
1.599922442E1,2.349417096E-1,2.776557954E0,2.063634431E0,3.467428261E0
1.600916842E1,-1.914787710E-1,2.895834721E0,1.913680247E0,3.476304783E0
1.601911242E1,-5.569028521E-1,2.783310903E0,1.530104070E0,3.224620727E0
1.602905642E1,-7.609443659E-1,2.703118680E0,1.193506835E0,3.051285875E0
1.603900042E1,-9.067920506E-1,2.540247411E0,9.184069598E-1,2.849315721E0
1.604894442E1,-1.021146047E0,2.162506170E0,6.841205768E-1,2.487406913E0
1.605888842E1,-1.019809374E0,1.636736818E0,5.172213078E-1,1.996606233E0
1.606883242E1,-8.864215207E-1,1.599024031E0,3.884666423E-1,1.869097990E0
1.607877642E1,-6.407782370E-1,1.995939462E0,5.569695834E-1,2.169005809E0
1.608872042E1,-1.451787633E0,2.328544875E0,1.199174029E0,2.994633019E0
1.609866442E1,-2.242662141E0,1.502353184E0,2.850961142E0,3.926140344E0
1.610860842E1,-2.910876684E0,4.205960691E-2,4.671961559E0,5.504743126E0
1.611855242E1,-3.439967839E0,-7.931473213E-1,5.974573857E0,6.939596110E0
1.612849642E1,-3.718958378E0,-5.528741205E-1,6.463040897E0,7.477113002E0
1.613844042E1,-3.884943289E0,6.241189349E-1,5.336386521E0,6.630183248E0
1.614838442E1,-3.485826382E0,1.832458913E0,2.962868371E0,4.928232971E0
1.615832842E1,-2.174567807E0,2.325872113E0,1.228621923E0,3.412907567E0
1.616827242E1,-8.358091915E-1,2.302683810E0,4.124007578E-1,2.484150583E0
1.617821642E1,-1.089605248E-1,1.915392312E0,-2.902965693E-1,1.940327859E0
1.618816042E1,-2.595655042E-1,1.002017466E0,-1.084850146E0,1.499437592E0
1.619810442E1,-1.611046491E0,-3.090656930E-1,-1.896207451E0,2.507308337E0
1.620804842E1,-3.478783411E0,-1.638799716E0,-2.195726249E0,4.428183859E0
1.621799242E1,-5.207975818E0,-2.741764097E0,-1.614005621E0,6.102892481E0
1.622793642E1,-6.069464811E0,-3.281103668E0,-4.110988753E-1,6.911804877E0
1.623788042E1,-6.305071349E0,-3.244640431E0,8.119809106E-1,7.137291450E0
1.624782442E1,-6.650860480E0,-3.098272344E0,1.814696388E0,7.558198173E0
1.625776842E1,-6.701790313E0,-2.853875102E0,2.940477043E0,7.855253130E0
1.626771242E1,-5.895707781E0,-2.293479708E0,4.225558219E0,7.607546364E0
1.627765642E1,-4.785956244E0,-1.491200790E0,4.847209629E0,6.973126856E0
1.628760042E1,-3.534308571E0,-2.953381848E-1,4.040319304E0,5.376127026E0
1.629754442E1,-2.952998856E0,1.049714373E0,2.437727741E0,3.970468366E0
1.630748842E1,-2.901212990E0,2.243789485E0,1.617994738E0,4.008682456E0
1.631743242E1,-2.774062362E0,3.294571559E0,2.335803609E0,4.899551229E0
1.632737642E1,-2.300287621E0,3.856876069E0,3.837245797E0,5.906883396E0
1.633731942E1,-1.543214112E0,3.486191248E0,4.969425792E0,6.263404179E0
1.634726342E1,-1.084690078E0,2.131943359E0,5.260190284E0,5.778523763E0
1.635720742E1,-1.284357290E0,-1.761315840E-1,4.446615130E0,4.631736402E0
1.636715142E1,-1.981960523E0,-2.639648908E0,2.642497087E0,4.228321738E0
1.637709542E1,-2.993494332E0,-4.932234576E0,3.361907803E-1,5.779357272E0
1.638703942E1,-4.241602394E0,-6.468053715E0,-2.051700557E0,8.002273733E0
1.639698342E1,-5.915974815E0,-8.467521971E0,-3.469622578E0,1.089660347E1
1.640692742E1,-7.465381714E0,-1.111839169E1,-4.038245297E0,1.398777977E1
1.641687142E1,-6.770650048E0,-1.197426735E1,-3.982708150E0,1.432085001E1
1.642681542E1,-4.060631070E0,-1.039378835E1,-2.603361087E0,1.145849248E1
1.643675942E1,-1.305524211E0,-7.972123057E0,-3.009240299E-1,8.083915807E0
1.644670342E1,8.349870729E-1,-5.420032695E0,1.424196961E0,5.665888704E0
1.645664742E1,2.270360402E0,-3.229286227E0,9.008483559E-1,4.048994153E0
1.646659142E1,2.815840718E0,-1.723459797E0,-1.356017257E0,3.569041247E0
1.647653542E1,2.872373353E0,-7.654619247E-1,-2.905533790E0,4.156752007E0
1.648647942E1,2.825705556E0,-2.088976264E-2,-3.678437759E0,4.638529143E0
1.649642342E1,2.823615761E0,5.802712494E-1,-4.111012434E0,5.020950499E0
1.650636742E1,2.875195220E0,1.062622687E0,-4.251160253E0,5.241018796E0
1.651631142E1,2.932780938E0,1.461385837E0,-4.325646179E0,5.426607362E0
