"Time (s)","Linear Acceleration x (m/s^2)","Linear Acceleration y (m/s^2)","Linear Acceleration z (m/s^2)","Absolute acceleration (m/s^2)"
3.162749999E-2,6.125133812E-2,-2.138025633E-1,7.660823143E-1,7.977125890E-1
4.157050001E-2,2.320125470E-1,-2.892699444E-1,1.149970148E0,1.208279051E0
5.151350000E-2,9.740525723E-2,-4.634345251E-1,6.739874983E-1,8.237223386E-1
6.145650000E-2,9.492399126E-2,-3.602761924E-1,3.889754963E-1,5.386199362E-1
7.139950000E-2,2.006407732E-1,5.130697846E-2,3.413873470E-1,3.992924324E-1
8.134249999E-2,9.077042162E-2,4.829314810E-1,2.348159945E-1,5.446105361E-1
9.128650000E-2,-2.380278701E-1,6.629339218E-1,-2.280928659E-1,7.403816631E-1
1.012295000E-1,-4.930430710E-2,-1.160955897E-1,-8.025882357E-1,8.124389065E-1
1.111737500E-1,3.437417284E-1,-7.894027644E-1,-1.035220295E-1,8.671977346E-1
1.211167500E-1,-3.583533356E-1,-7.432746649E-1,1.295433086E-1,8.352579298E-1
1.310597500E-1,-2.322227544E-1,-1.481754613E-1,-6.544437647E-2,2.831366126E-1
1.410027500E-1,-1.101665130E-1,5.711563173E-1,1.609635558E0,1.711514776E0
1.509457500E-1,-4.887111613E-1,4.711902720E-1,1.739653661E0,1.867419002E0
1.608887500E-1,-1.167978695E0,-3.814284950E-2,1.290872258E-1,1.175709412E0
1.708317500E-1,-6.668302140E-1,2.067791802E-1,-2.432880253E-1,7.393302556E-1
1.807747500E-1,-4.644728445E-1,2.799103063E-1,-2.863966227E-3,5.423034253E-1
1.907177500E-1,-9.091594420E-1,1.394736350E-2,7.034258902E-2,9.119832783E-1
2.006607500E-1,-6.642339040E-1,1.901803967E-1,2.296219128E-1,7.280806861E-1
2.106037500E-1,-6.810072269E-1,2.719233021E-1,1.015327483E0,1.252438830E0
2.205467500E-1,-6.807635441E-1,-6.355952650E-2,8.669596481E-1,1.104127641E0
2.304897500E-1,-4.165857562E-1,-3.912155646E-1,4.582293338E-1,7.325076331E-1
2.404327500E-1,-3.524206044E-1,1.356460476E-1,5.040679961E-1,6.298290858E-1
2.503757500E-1,2.812468337E-1,7.669707987E-1,-9.127269745E-2,8.219943386E-1
2.603187500E-1,9.331445745E-1,1.249540922E0,-9.689771891E-1,1.836035976E0
2.702617500E-1,1.164896628E0,1.988099515E0,-1.872134026E0,2.968907147E0
2.802047500E-1,1.119431018E0,2.703397592E0,-2.252391323E0,3.692526373E0
2.901477500E-1,3.402888013E-1,2.147844862E0,-2.363154545E0,3.211469044E0
3.000907500E-1,-5.421283999E-1,1.309380450E0,-1.954875636E0,2.414522544E0
3.100347500E-1,-7.576535529E-1,7.168481737E-1,-1.077012100E0,1.499288256E0
3.199777500E-1,-1.530976474E-1,3.200157738E-1,-8.968985617E-2,3.659142733E-1
3.299207500E-1,6.412372434E-1,2.003013423E-1,1.523371586E0,1.664922466E0
3.398637500E-1,-1.926137155E-1,8.057784766E-1,2.235055498E0,2.383663583E0
3.498067500E-1,-1.123930012E0,1.738433639E0,1.406144267E0,2.502521107E0
3.597497500E-1,-1.068056504E0,1.873061686E0,1.131084226E0,2.434842152E0
3.696927500E-1,-6.220319174E-1,1.649115958E0,9.154324812E-1,1.986082520E0
3.796357500E-1,-6.381790034E-1,1.614098738E0,5.798958582E-1,1.829990815E0
3.895787500E-1,-2.380442423E-1,1.652151540E0,3.097878242E-1,1.697715603E0
3.995217500E-1,-1.631995896E-1,1.579584378E0,3.979375237E-1,1.637093518E0
4.094647500E-1,-7.536710143E-2,1.863979206E0,6.157457221E-1,1.964495222E0
4.194077500E-1,8.176410154E-1,2.447043378E0,4.574832290E-1,2.620276518E0
4.293507500E-1,1.933876822E0,2.592027137E0,1.734687620E-1,3.238607055E0
4.392937500E-1,2.180228496E0,1.968168403E0,-1.000236404E-1,2.938892289E0
4.492367500E-1,1.323521064E0,1.056820787E0,-1.909846812E-1,1.704421700E0
4.591797500E-1,5.992296767E-1,5.484471935E-1,1.876640475E-1,8.337195717E-1
4.691227500E-1,-2.555721483E-1,7.427668342E-1,5.539587790E-1,9.611919797E-1
4.790657500E-1,-1.157687303E0,1.681349904E0,9.859598422E-1,2.267001147E0
4.890087500E-1,-1.594269660E0,2.356295761E0,7.201571131E-1,2.934697894E0
4.989517500E-1,-1.699630054E0,2.414007779E0,1.317997491E-1,2.955257528E0
5.088947500E-1,-1.008407595E0,2.154858597E0,-3.511802638E-1,2.404917676E0
5.188377500E-1,-3.188884306E-1,1.983484600E0,-6.897048140E-1,2.124051252E0
5.287817500E-1,-2.493252754E-3,1.810243002E0,-8.267506850E-1,1.990101163E0
5.387247500E-1,-2.443843782E-1,1.327771112E0,-9.712260282E-1,1.663123522E0
5.486677500E-1,-3.883130068E-1,5.099684215E-1,-8.454530042E-1,1.060964450E0
5.586107500E-1,-9.050226831E-1,-6.234342259E-1,-1.631080806E0,1.966764065E0
5.685537500E-1,-1.442854841E0,-2.359431038E0,-2.505061791E0,3.731498291E0
5.784967500E-1,-1.228057374E0,-4.149833853E0,-2.182579077E0,4.846947219E0
5.884397500E-1,-2.644338959E-1,-4.551898341E0,-1.588846368E0,4.828471453E0
5.983827500E-1,4.612897664E-1,-4.347560374E0,-5.659888405E-1,4.408447892E0
6.083257500E-1,1.260893583E-2,-5.196058023E0,-6.230412930E-1,5.233293267E0
6.182687500E-1,-2.710827649E-1,-5.319709677E0,-9.108201975E-1,5.403923607E0
6.282117500E-1,-1.006268392E0,-5.592119760E0,-1.861247095E0,5.979014989E0
6.381547500E-1,-1.449017222E0,-6.204556543E0,-3.302117976E0,7.176360911E0
6.480977500E-1,-1.168801691E0,-5.878545034E0,-2.655234661E0,6.555429827E0
6.580407500E-1,-8.120700806E-1,-4.670611145E0,-5.312160337E-1,4.770351848E0
6.679837500E-1,-3.471988946E-1,-4.254403996E0,-2.370566475E-1,4.275125295E0
6.779267500E-1,1.103411694E0,-3.711376002E0,-2.768071890E-2,3.872027300E0
6.878697500E-1,2.306023740E0,-2.630073800E0,7.549585712E-1,3.578406925E0
6.978127500E-1,2.405138723E0,-2.084440871E0,1.183709167E0,3.395696308E0
7.077557500E-1,2.065545301E0,-1.807597137E0,2.320321351E0,3.594130768E0
7.176987500E-1,2.229282542E0,-1.350705354E0,2.736833725E0,3.779466159E0
7.276417500E-1,2.754442030E0,-7.810886085E-1,1.762947214E0,3.362295821E0
7.375847500E-1,3.048652872E0,-4.401199222E-3,9.848605657E-1,3.203787452E0
7.475277500E-1,2.945516174E0,1.004999253E0,4.613371289E-1,3.146255072E0
7.574717500E-1,2.046200373E0,1.974788328E0,-4.201750696E-2,2.844027141E0
7.674147500E-1,9.989137638E-1,2.816399712E0,1.110316086E-1,2.990361862E0
7.773577500E-1,4.265146208E-1,3.688211964E0,6.210473925E-1,3.764375390E0
7.873007500E-1,5.943969530E-1,4.624239509E0,8.819364139E-1,4.744966871E0
7.972437500E-1,9.389505672E-1,5.422808368E0,6.453934443E-1,5.541210289E0
8.071867500E-1,1.546026038E0,5.756393191E0,3.951068866E-1,5.973472066E0
8.171297500E-1,2.190251793E0,6.098182241E0,1.119861373E0,6.575645904E0
8.270727500E-1,2.694483511E0,5.875265331E0,1.760147567E0,6.699037510E0
8.370157500E-1,2.833367162E0,4.859397273E0,1.283894776E0,5.769757112E0
8.469587500E-1,2.276040387E0,3.776279218E0,7.771218574E-1,4.477115473E0
8.569017500E-1,1.214366704E0,2.243047473E0,2.830137160E-1,2.566329133E0
8.668447500E-1,-9.141887784E-2,6.870820454E-1,-3.585106257E-1,7.803646693E-1
8.767877500E-1,-1.683220428E-1,-6.117780939E-1,-4.815562159E-2,6.363361613E-1
8.867307500E-1,6.238967407E-1,-2.982321765E0,-1.879315576E0,3.579848780E0
8.966737500E-1,1.155265971E0,-4.965536224E0,-2.423182938E0,5.644732501E0
9.066167500E-1,1.029885880E0,-6.263136288E0,-5.814558953E-1,6.373823974E0
9.165597500E-1,1.158457382E0,-6.128209448E0,4.928083053E-1,6.256183706E0
9.265027500E-1,2.246335947E0,-5.744023406E0,1.824678316E0,6.431895602E0
9.364457500E-1,2.880950634E0,-4.711851264E0,3.646640015E0,6.618111686E0
9.463887500E-1,1.686785476E0,-3.317488552E0,3.323385469E0,4.989575784E0
9.563317500E-1,8.135657984E-1,-2.725054801E0,3.297429678E0,4.354406442E0
9.662757500E-1,6.313022393E-1,-4.408804987E0,2.632320300E0,5.173510810E0
9.762187500E-1,6.747295099E-1,-5.893102262E0,2.252295721E0,6.344820738E0
9.861617500E-1,2.444440198E-1,-6.746084726E0,1.196585613E0,6.855744244E0
9.961047500E-1,-3.086885476E-1,-6.953280228E0,-1.621073297E-1,6.962016470E0
1.006047750E0,-2.960349391E0,-7.675421301E0,-1.128719612E0,8.303599739E0
1.015990750E0,-4.721077001E0,-6.469012073E0,-2.635320214E0,8.430990326E0
1.025933750E0,-4.568788608E0,-3.950997238E0,-3.308456358E0,6.886950849E0
1.035876750E0,-3.278976451E0,-2.528629871E0,-2.177639349E0,4.678436568E0
1.045819750E0,-1.895224096E0,-1.278696893E0,-1.427214709E0,2.695158983E0
1.055762750E0,-7.589820403E-1,4.273107192E-1,-1.022839985E0,1.343446993E0
1.065705750E0,-1.613276035E-1,3.455028220E0,-1.558671373E0,3.793771612E0
1.075648750E0,-8.133944750E-1,6.501700348E0,-2.613566233E0,7.054391996E0
1.085591750E0,-1.539066682E0,8.606093380E0,-4.011996853E0,9.619235327E0
1.095534750E0,-5.865037966E-1,1.092319058E1,-3.116737851E0,1.137427509E1
1.105477750E0,9.042046577E-1,1.127818790E1,-1.218370877E0,1.137978629E1
1.115419917E0,3.453862578E0,1.349628004E1,-8.902070081E-1,1.395962787E1
1.125362917E0,5.484077248E0,1.317538017E1,1.028063230E0,1.430813265E1
1.135305917E0,6.768877172E0,1.060194455E1,1.320169732E0,1.264759956E1
1.145248917E0,7.638396732E0,7.345902632E0,2.755219710E-1,1.060109912E1
1.155191917E0,8.185061694E0,5.340531027E0,4.832723737E-2,9.773374141E0
1.165134917E0,8.162597276E0,4.576842856E0,-7.527880847E-2,9.358480203E0
1.175077917E0,4.804910871E0,3.155108157E0,2.138837811E0,6.133229422E0
1.185021917E0,5.387217536E0,1.873977653E0,2.564292916E0,6.253759124E0
1.194964917E0,4.625162784E0,5.238842100E-1,5.941881489E0,7.548015704E0
1.204907917E0,2.361587491E0,7.053028464E-1,5.502873123E0,6.029606968E0
1.214850917E0,1.091985065E0,-2.632600674E-1,2.964256500E0,3.169945401E0
1.224793917E0,8.054048395E-1,-2.022983126E0,1.097221831E0,2.438243924E0
1.234736917E0,7.271258247E-1,-3.590173746E0,4.415095130E-1,3.689578586E0
1.244679917E0,-1.135412335E-1,-5.612661613E0,4.199093136E-1,5.629492502E0
1.254622917E0,-5.516292483E-1,-7.384795972E0,2.307235283E-1,7.408963472E0
1.264565917E0,-2.326656225E0,-9.639220957E0,4.370986658E-1,9.925672022E0
1.274508917E0,-3.806097094E0,-1.224351526E1,9.961234725E-1,1.286010509E1
1.284451917E0,-2.998778461E0,-1.296543122E1,2.718434876E0,1.358252433E1
1.294394917E0,-2.315990903E0,-1.091409582E1,2.581427012E0,1.145185866E1
1.304337917E0,-2.096710961E0,-7.907597862E0,1.218845671E0,8.271147779E0
1.314280917E0,-1.398040026E0,-4.891870662E0,9.655735248E-1,5.178537122E0
1.324223917E0,-7.750367403E-1,-3.067924710E0,-2.236051279E-1,3.172198485E0
1.334166917E0,-7.475881559E-1,-1.476750858E0,-1.732159869E0,2.395842015E0
1.344109917E0,-1.326411635E0,5.831369698E-1,-2.678303096E0,3.045114780E0
1.354052917E0,-2.260119004E0,3.248132973E0,-3.043486857E0,4.992125596E0
1.363995917E0,-3.792836194E0,5.620364150E0,-3.663708622E0,7.706935866E0
1.373938917E0,-5.336005867E0,4.818146628E0,-3.583560545E0,8.033019465E0
1.383882917E0,-5.926889813E0,3.810307674E0,-1.001763697E0,7.116881194E0
1.393825917E0,-6.064249095E0,4.439487374E0,-3.365142775E-1,7.523124822E0
1.403768917E0,-5.886059875E0,4.654525747E0,-7.788432777E-1,7.544329502E0
1.413711917E0,-5.188194687E0,5.479774282E0,-4.625580275E-1,7.560373683E0
1.423654917E0,-3.784431406E0,4.748327950E0,-1.090172428E0,6.169036822E0
1.433597917E0,-2.013154249E0,2.541939595E0,-1.145207006E0,3.438858244E0
1.443540917E0,-8.347485065E-2,1.220812674E0,-1.167601258E0,1.691343943E0
1.453483917E0,2.625162431E0,-1.053948050E0,-2.580271018E0,3.828848757E0
1.463426917E0,5.370350658E0,-3.071987940E0,-2.872291492E0,6.821131468E0
1.473369917E0,6.839255430E0,-4.773265155E0,-3.123535824E0,8.905950321E0
1.483312917E0,8.050169352E0,-6.472404628E0,-3.239275026E0,1.082543999E1
1.493255917E0,9.481414547E0,-6.676055548E0,-2.591958432E0,1.188213735E1
1.503198917E0,9.074983943E0,-6.277348530E0,-1.888711174E0,1.119498406E1
1.513141917E0,7.520354896E0,-4.980872301E0,-2.180736912E0,9.280109920E0
1.523084917E0,6.439328098E0,-3.972732800E0,-1.765966716E0,7.769568244E0
1.533027917E0,6.185851300E0,-3.744779098E0,-4.352614707E-1,7.244141036E0
1.542970917E0,6.590694385E0,-4.504296743E0,-3.845628950E-1,7.992110500E0
1.552913917E0,6.830033786E0,-4.780625630E0,-2.079910156E-1,8.339484588E0
1.562856917E0,5.864446228E0,-4.072940628E0,9.356521529E-1,7.201112405E0
1.572799917E0,7.107278931E-1,-2.886230377E0,4.272644677E0,5.204896970E0
1.582743917E0,-6.190827865E0,-1.565416574E-2,5.853993745E0,8.520319094E0
1.592686917E0,-7.539516222E0,5.366506698E0,3.917479828E0,1.004939537E1
1.602629917E0,-6.422799189E0,9.974373418E0,1.909127605E0,1.201604106E1
1.612572917E0,-8.379210888E0,1.039446546E1,1.666292739E0,1.345483626E1
1.622515917E0,-1.092154166E1,6.591995391E0,2.308206798E0,1.296388422E1
1.632458917E0,-1.194792681E1,4.141312121E0,-6.311888033E-1,1.266103552E1
1.642401917E0,-1.176774837E1,4.300487949E0,2.420010531E-1,1.253126741E1
1.652344917E0,-1.062032235E1,2.931309779E0,9.417408586E-2,1.101783520E1
1.662287917E0,-8.672178612E0,2.953056451E0,-1.469937390E0,9.278358702E0
1.672230917E0,-6.202963176E0,1.866208165E0,-9.902133992E-1,6.552862555E0
1.682173917E0,-5.100450200E0,-1.751241088E-2,-5.072678849E-1,5.125643338E0
1.692116917E0,-4.639235862E0,-2.925720133E0,-1.279642096E0,5.632036184E0
1.702059917E0,-2.227060016E0,-7.132506158E0,-2.586601213E0,7.907145265E0
1.712002917E0,8.412324840E-1,-1.011087667E1,-3.905446843E0,1.087152308E1
1.721945917E0,3.557454774E0,-1.030094977E1,-4.333280596E0,1.172784598E1
1.731888917E0,6.471276700E0,-8.896137496E0,-3.774258713E0,1.163029292E1
1.741831917E0,9.546213391E0,-6.957905960E0,-4.343366166E0,1.258600314E1
1.751774917E0,1.262378542E1,-2.273037842E0,-4.990731291E0,1.376350458E1
1.761717917E0,1.452369665E1,-3.772670317E-1,-4.088849440E0,1.509300449E1
1.771661917E0,1.519301222E1,-3.318180862E-1,-4.376623374E0,1.581431490E1
1.781604917E0,1.532866294E1,-3.794547674E-1,-4.446930588E0,1.596518353E1
1.791547917E0,1.250291880E1,-1.164469489E0,-8.646890574E0,1.524623508E1
1.801490917E0,4.831373030E0,-3.341920850E0,-1.716489214E1,1.814232958E1
1.811433917E0,1.092411911E-1,-1.694639163E0,-8.367180242E0,8.537765559E0
1.821376917E0,2.398288125E-1,1.443262392E0,2.621344784E0,3.001994782E0
1.831319917E0,-6.900831288E-1,3.868772814E0,6.826074636E0,7.876478448E0
1.841262917E0,-7.295402570E0,6.337153852E0,1.228761145E1,1.563226832E1
1.851205917E0,-1.320014547E1,9.125841270E0,8.477674491E0,1.814926401E1
1.861148917E0,-1.506216790E1,6.520642987E0,1.063105082E0,1.644742774E1
1.871091917E0,-1.339525185E1,7.417543888E0,4.030697126E0,1.583348505E1
1.881034917E0,-9.732770560E0,9.978885130E0,1.352271881E1,1.942083663E1
1.890977917E0,-8.927443489E0,3.763193734E0,1.168268542E1,1.517715431E1
1.900920917E0,-8.700057551E0,-5.947606498E-1,8.813285959E0,1.239833662E1
1.910863917E0,-8.701790081E0,-3.447321882E0,6.551167792E0,1.142466534E1
1.920806917E0,-7.346492032E0,-5.526190649E0,2.952785725E0,9.655499563E0
1.930749917E0,-4.952781107E0,-5.533126616E0,-3.480160430E-1,7.434154022E0
1.940692917E0,-1.227790157E0,-4.088795938E0,-2.824667675E0,5.119030022E0
1.950635917E0,3.041622180E0,-3.015703227E0,-4.208072705E0,6.004482270E0
1.960578917E0,6.163626033E0,-2.913167623E0,-6.350065674E0,9.316660643E0
1.970521917E0,8.868444498E0,-1.260790672E0,-8.534593627E0,1.237247709E1
1.980465917E0,1.132242677E1,9.534352899E-2,-1.012509710E1,1.518960268E1
1.990408917E0,1.240701744E1,2.541889894E-1,-1.223700614E1,1.742822461E1
2.000351917E0,1.166078058E1,-1.876640475E-1,-1.054352970E1,1.572180142E1
2.010294917E0,9.823336329E0,-2.023177546E-1,-5.892328091E0,1.145680581E1
2.020237917E0,7.495077968E0,-3.589558911E-1,-4.396862926E0,8.696979169E0
2.030180917E0,5.006945035E0,-4.208551008E-1,-3.878623326E0,6.347466936E0
2.040123917E0,1.566822245E0,8.919097173E-1,-1.796931523E0,2.545466125E0
2.050066917E0,-3.578644499E0,2.242590805E0,-4.875583827E-2,4.223539641E0
2.060009917E0,-1.589418225E1,-5.780060381E-1,2.839568719E0,1.615618368E1
2.069952917E0,-1.629869380E1,1.186365557E0,2.871661162E0,1.659220663E1
2.079895917E0,-8.809713310E0,7.333914086E0,4.741843972E0,1.240493566E1
2.089838917E0,-4.270571254E0,7.093007047E0,1.223710554E1,1.477481911E1
2.099781917E0,-2.183184264E0,3.943334754E0,3.358966945E0,5.621284680E0
2.109724917E0,-1.872576660E-1,2.090395968E0,2.833395814E0,3.526039219E0
2.119668375E0,2.896260399E-1,-3.819699472E-1,3.842870818E0,3.872652890E0
2.129611375E0,1.545177022E0,-3.430381914E0,1.515393645E0,4.056046105E0
2.139554375E0,3.686700459E0,-5.952908168E0,1.674173031E0,7.199425760E0
2.149497375E0,2.363751546E0,-7.189943942E0,4.610985625E-1,7.582560725E0
2.159440375E0,-2.014569275E0,-8.082978079E0,4.914561367E-1,8.344732059E0
2.169384375E0,-3.058599570E0,-7.106048677E0,1.692226310E0,7.919254322E0
2.179327375E0,-2.299597650E0,-4.679627551E0,2.683132896E0,5.863980347E0
2.189270375E0,-1.883377637E0,-3.760759538E0,3.182699998E0,5.274467073E0
2.199213375E0,-2.415094777E0,-5.998059783E0,2.440155066E0,6.911133097E0
2.209156375E0,-1.698329633E0,-6.413429611E0,2.554818088E0,7.109395078E0
2.219099375E0,-1.000815863E0,-5.628846706E0,1.981288093E0,6.050706582E0
2.229042375E0,3.874218911E-1,-4.531153005E0,8.856607980E-1,4.633124035E0
2.238985375E0,2.597716770E0,-2.812017516E0,-5.099076104E-1,3.862069484E0
2.248928375E0,3.799610193E0,-8.356372833E-2,-1.682310601E0,4.156222982E0
2.258871375E0,4.776160111E0,1.536559103E-1,-3.579625954E0,5.970681495E0
2.268814375E0,6.729319004E0,1.281501218E0,-5.410981790E0,8.729530547E0
2.278757375E0,7.668460191E0,2.498336323E0,-6.025172153E0,1.006725710E1
2.288700375E0,6.205045370E0,3.017454468E0,-6.147483040E0,9.241166985E0
2.298643375E0,5.452933223E0,4.329870792E0,-6.104086175E0,9.259704631E0
2.308586375E0,5.175901501E0,5.656557831E0,-5.422220138E0,9.390797307E0
2.318529375E0,3.889461433E0,6.850075702E0,-4.836711538E0,9.243658684E0
2.328472375E0,3.636239573E0,7.931262714E0,-4.404184810E0,9.773638540E0
2.338415375E0,3.539049493E0,7.563222588E0,-3.111159315E0,8.911033583E0
2.348359375E0,3.064507597E0,6.095709454E0,-1.583183632E0,7.003952525E0
2.358302375E0,1.414709269E0,4.024603450E0,-8.660056749E-1,4.353022062E0
2.368245375E0,6.647775489E-1,3.023839043E0,-3.708693007E-1,3.118184694E0
2.378188375E0,-1.323944110E-1,2.133900422E0,1.283649192E0,2.493755108E0
2.388131375E0,-2.089880244E0,2.802149463E-1,3.006292133E0,3.672044695E0
2.398074375E0,-4.508886808E0,-1.574077763E-1,4.724249408E0,6.532485738E0
2.408017375E0,-7.107752556E0,1.662928836E0,6.448256797E0,9.739891910E0
2.417960375E0,-6.639191192E0,4.898069295E-1,6.017854947E0,8.974037479E0
2.427903375E0,-6.303700762E0,-2.468853493E0,5.510665122E0,8.729221669E0
2.437846375E0,-6.672822622E0,-4.571780629E0,5.022920798E0,9.521421806E0
2.447789375E0,-6.137927520E0,-6.077864921E0,3.141453154E0,9.191481065E0
2.457732375E0,-4.583531778E0,-6.423796724E0,3.305828619E-1,7.898304434E0
2.467675375E0,-2.697883083E0,-5.554810431E0,-2.395910062E0,6.623811371E0
2.477618375E0,-9.398691648E-1,-4.665760002E0,-3.491142963E0,5.902605326E0
2.487561375E0,1.432203553E0,-4.167003909E0,-4.162871097E0,6.061734436E0
2.497504375E0,3.808454692E0,-3.973949021E0,-6.133346812E0,8.241027914E0
2.507447375E0,6.302373444E0,-3.455913489E0,-7.371134537E0,1.029547830E1
2.517390375E0,7.291781389E0,-2.004240461E0,-8.156116222E0,1.112246769E1
2.527333375E0,7.181858997E0,-1.787661932E0,-7.997789994E0,1.089676459E1
2.537276375E0,7.253994343E0,-2.759756564E0,-6.494406531E0,1.011998055E1
2.547220375E0,6.332576652E0,-2.402492858E0,-4.568139567E0,8.169540874E0
2.557163375E0,4.446815105E0,-2.294880299E-1,-2.347057452E0,5.033438985E0
2.567106375E0,2.500810865E0,9.361915585E-1,-7.165885574E-1,2.764780060E0
2.577049375E0,1.257365958E0,1.839241391E0,1.805834786E0,2.867894231E0
2.586992375E0,-7.805237675E-1,1.838545280E0,7.622788174E0,7.880124723E0
2.596935375E0,-3.181568270E0,2.030129886E-1,1.067656672E1,1.114238160E1
2.606878375E0,-3.773863733E0,-5.571560365E-1,1.312373055E1,1.366692262E1
2.616821375E0,-5.132878858E0,-2.920668431E0,1.123398997E1,1.269170123E1
2.626764375E0,-6.500259594E0,-5.433644428E0,8.538901856E0,1.202874522E1
2.636707375E0,-6.083451351E0,-6.900044253E0,7.998858281E0,1.219018970E1
2.646650375E0,-5.667932419E0,-7.513861563E0,5.137499912E0,1.072275519E1
2.656593375E0,-3.907985997E0,-7.349628478E0,1.372952548E0,8.436491689E0
2.666536375E0,-2.817730538E0,-7.950399481E0,-5.018578656E0,9.815018544E0
2.676479375E0,-1.838800803E0,-5.893758320E0,-1.058666461E1,1.225540872E1
2.686422375E0,-1.264083824E0,-5.517884095E0,-1.268723005E1,1.389283121E1
2.696365375E0,-9.880069524E-1,-5.172513624E0,-1.283836888E1,1.387641058E1
2.706308375E0,7.251991671E-1,-3.091570265E0,-1.139171978E1,1.182603062E1
2.716251375E0,2.984609488E0,-1.251514649E-1,-7.419246597E0,7.998048309E0
2.726194375E0,4.608608147E0,4.379363379E0,-4.020684646E0,7.522233557E0
2.736138375E0,2.420176592E0,1.076789555E1,-1.965049206E0,1.121009579E1
2.746081375E0,-7.322827765E0,1.434896781E1,-4.789673612E-1,1.611664026E1
2.756024375E0,-1.444274311E1,1.536875730E1,3.083799900E0,2.131434614E1
2.765967375E0,-1.561914092E1,1.696074479E1,3.631304523E0,2.334118248E1
2.775910375E0,-1.240148364E1,1.628766595E1,3.878820962E0,2.083578918E1
2.785853375E0,-9.747928298E0,1.282784038E1,5.552437631E0,1.704127808E1
2.795796375E0,-7.948320796E0,9.922023296E0,5.232536463E0,1.374779210E1
2.805739375E0,-3.935004811E0,6.568488999E0,2.491501513E0,8.052135765E0
2.815682375E0,1.877861373E0,1.447527059E0,4.364467013E-1,2.410847081E0
2.825625375E0,8.047431686E0,-2.442626392E0,-1.424180589E0,8.529705199E0
2.835568375E0,1.199518752E1,-5.404918227E0,-6.762408398E0,1.479283043E1
2.845511375E0,1.193302577E1,-8.356519014E0,-1.071810066E1,1.808607740E1
2.855454375E0,1.053265037E1,-1.144853484E1,-1.135835089E1,1.926182257E1
2.865397375E0,1.113105559E1,-1.376365918E1,-9.535511817E0,2.010633478E1
2.875340375E0,1.235352244E1,-1.573988359E1,-7.586543038E0,2.139881042E1
2.885283375E0,1.288745041E1,-1.649319207E1,-5.981125662E0,2.176891424E1
2.895226375E0,1.236675819E1,-1.498532964E1,-5.173595359E0,2.010629010E1
2.905169375E0,1.123882562E1,-1.275948409E1,-4.379603992E0,1.755837597E1
2.915113375E0,9.486306328E0,-1.033979516E1,-3.735868818E0,1.452095340E1
2.925056375E0,-2.201657957E0,-4.758192202E0,-3.373082124E0,6.234209959E0
2.934999375E0,-2.405960140E1,6.671392978E0,-7.547331026E0,2.608321508E1
2.944942375E0,9.069733143E-1,3.447854271E0,-6.396835213E0,7.323237017E0
2.954885375E0,6.665313043E0,-8.540666838E-1,-3.280553152E0,7.477824339E0
2.964828375E0,-1.035522012E0,-3.270582188E0,-2.000668397E0,3.971358422E0
2.974771375E0,2.600325213E0,-3.749046688E0,-1.138947562E0,4.702578424E0
2.984714375E0,1.829714815E0,-1.606547351E0,2.675753710E0,3.617804391E0
2.994657375E0,-8.142146639E0,2.476929667E0,7.669093444E0,1.145620909E1
3.004600375E0,-1.018693491E1,2.264934917E0,-2.813488383E0,1.080829727E1
3.014543375E0,-9.397556704E0,1.115320425E0,-9.354614167E0,1.330664563E1
3.024486375E0,-4.911237225E0,2.787552474E0,-7.508973291E0,9.395497845E0
3.034429375E0,-1.870571065E0,3.612697221E0,-4.037923408E0,5.731966745E0
3.044372375E0,-1.129426541E0,3.655172272E0,-1.785885694E0,4.221999096E0
3.054315375E0,-8.403630030E-1,5.543571498E0,-8.823237920E-1,5.675904351E0
3.064258375E0,2.671446651E-1,7.404043252E0,1.974034915E0,7.667335691E0
3.074201375E0,2.683712355E0,5.543422394E0,4.631448833E0,7.705982230E0
3.084144375E0,3.990960326E0,3.483012702E0,4.591330209E0,7.009953987E0
3.094087375E0,-1.377924435E0,2.496825403E-1,8.054978102E-2,1.402677934E0
3.104031375E0,-1.005152158E0,1.389728502E0,-1.383507649E0,2.203581082E0
3.113973625E0,6.029420739E-1,2.743479670E0,-1.883696895E0,3.382090158E0
3.123916625E0,1.383533084E-1,2.510337441E0,-2.923871536E0,3.856158771E0
3.133859625E0,6.678713107E-1,2.182961777E0,-2.951230658E0,3.731103939E0
3.143802625E0,-8.813443834E-1,1.455428402E0,-5.949262429E0,6.187791465E0
3.153745625E0,-2.817921742E0,9.917708051E-1,-7.770526264E0,8.324984726E0
3.163688625E0,-4.554062980E0,1.974457668E0,-2.648444290E0,5.626031449E0
3.173631625E0,-4.946552069E0,2.703653700E0,1.352445778E0,5.797174336E0
3.183574625E0,-4.894611252E0,3.783400250E0,7.195620419E0,9.489377744E0
3.193517625E0,-5.320715983E0,4.808227412E0,9.203966503E0,1.166799335E1
3.203460625E0,-4.990129613E0,5.819582881E0,8.129855207E0,1.117423305E1
3.213403625E0,-3.263419933E0,6.820262504E0,5.291579892E0,9.228581041E0
3.223346625E0,-8.420779914E-1,6.988453569E0,1.255167405E0,7.150036632E0
3.233289625E0,4.785226804E-1,4.456282917E0,-2.721937066E0,5.243699341E0
3.243232625E0,-5.628939092E-2,2.952291343E-1,-3.843119910E0,3.854854002E0
3.253175625E0,-1.201113989E0,-4.899879301E0,-1.419315705E0,5.240796605E0
3.263118625E0,-2.256029461E0,-7.069097782E0,-3.519907463E0,8.212889926E0
3.273061625E0,-3.555832756E0,-7.904335701E0,-4.499451740E0,9.765630314E0
3.283005625E0,-4.542302476E0,-8.506099561E0,-5.006058013E0,1.086493711E1
3.292948625E0,-4.503642440E0,-8.080913427E0,-5.009819527E0,1.052056314E1
3.302891625E0,-4.016144868E0,-7.715838425E0,-3.783760146E0,9.485801128E0
3.312834625E0,-3.110972496E0,-6.844067103E0,-3.845026687E0,8.444147950E0
3.322777625E0,-2.157835999E0,-4.924214535E0,-4.675607883E0,7.124988004E0
3.332720625E0,-1.381428087E0,-3.279127601E0,-4.456769990E0,5.702965906E0
3.342663625E0,-3.794217306E-1,-2.871784246E0,-4.554900302E0,5.397983176E0
3.352606625E0,6.922039139E-1,-2.299661092E0,-2.545881203E0,3.499871212E0
3.362549625E0,1.132011595E0,-1.004352259E0,5.755999088E-1,1.619101283E0
3.372492625E0,1.594293926E0,5.558260873E-2,2.010004354E0,2.566121597E0
3.382435625E0,1.949678338E0,8.926580878E-1,2.432924107E0,3.243023865E0
3.392378625E0,1.948456855E0,1.334653285E0,1.588613648E0,2.846309335E0
3.402321625E0,1.455314673E0,1.382548413E0,-1.794042706E-2,2.007411959E0
3.412264625E0,5.983537638E-1,1.322465641E0,-1.525490617E0,2.105721781E0
3.422207625E0,-6.305488256E-1,1.242985901E0,-2.500733682E0,2.862913676E0
3.432150625E0,-1.291013176E0,1.619371465E0,-2.338816094E0,3.123962177E0
3.442093625E0,-1.530106993E0,2.075874116E0,-8.517533791E-1,2.715872709E0
3.452037625E0,-1.907860806E0,2.089169514E0,5.250624239E-1,2.877542817E0
3.461980625E0,-2.606422105E0,1.976745099E0,1.071046770E0,3.442106704E0
3.471923625E0,-3.998514928E0,1.503950497E0,2.813118839E-1,4.281252750E0
3.481866625E0,-5.076951410E0,9.156480242E-1,-4.198792005E-1,5.175919770E0
3.491809625E0,-5.529979060E0,4.302144465E-1,-5.248074853E-1,5.571460829E0
3.501752625E0,-6.064580047E0,-2.163962419E-1,-3.565018147E-1,6.078902206E0
3.511695625E0,-5.471162503E0,-1.398471259E-2,1.616973814E0,5.705122174E0
3.521638625E0,-4.351828549E0,8.979995193E-1,3.193573773E0,5.472086284E0
3.531581625E0,-3.098202762E0,1.835638337E0,3.950350828E0,5.345437318E0
3.541524625E0,-1.829446428E0,2.710896646E0,4.459140451E0,5.529897686E0
3.551467625E0,-4.749342442E-1,3.435010570E0,5.193691070E0,6.244940919E0
3.561410625E0,4.422243351E-1,3.516908426E0,5.414110050E0,6.471228236E0
3.571353625E0,8.568100512E-2,2.183585967E0,3.272441018E0,3.935004336E0
3.581296625E0,-2.249254292E-1,9.511918594E-1,1.619337258E0,1.891457258E0
3.591239625E0,-3.044811836E-1,3.081337565E-1,1.177197708E0,1.254372212E0
3.601182625E0,-6.472034499E-1,-9.288652897E-2,1.348646257E0,1.498781818E0
3.611125625E0,-1.324010768E0,-5.209098776E-1,9.552841794E-1,1.713744286E0
3.621068625E0,-1.794682977E0,-8.286577544E-1,8.718818343E-1,2.160494988E0
3.631011625E0,-2.056386223E0,-1.097430284E0,9.864439917E-1,2.531037194E0
3.640955625E0,-2.145676714E0,-1.200677202E0,7.608964187E-1,2.573813837E0
3.650898625E0,-2.124054003E0,-1.102533734E0,2.121954560E-1,2.402543018E0
3.660841625E0,-2.099097502E0,-8.996720423E-1,-6.605745703E-1,2.377389087E0
3.670784625E0,-2.074261746E0,-6.679881088E-1,-1.498098750E0,2.644441296E0
3.680727625E0,-2.011998839E0,-5.455697421E-1,-1.637957132E0,2.651167524E0
3.690670625E0,-1.925636926E0,-5.483853227E-1,-1.002430279E0,2.239122707E0
3.700613625E0,-1.838475114E0,-5.464709808E-1,-4.421664476E-2,1.918482835E0
3.710556625E0,-1.906185871E0,-2.642641622E-1,5.260190284E-1,1.995012817E0
3.720499625E0,-2.094307755E0,-4.184214531E-2,9.303282630E-1,2.292026705E0
3.730442625E0,-2.300552500E0,-6.701398842E-2,1.473503022E0,2.732808781E0
3.740385625E0,-2.539186726E0,-1.496601607E-1,2.032749438E0,3.256061681E0
3.750328625E0,-2.802601452E0,-1.923476855E-1,2.430975814E0,3.714998781E0
3.760271625E0,-3.006487723E0,-8.800602252E-2,2.532689300E0,3.932076878E0
3.770214625E0,-3.165396918E0,1.872154199E-2,1.547691910E0,3.523554795E0
3.780157625E0,-3.139463639E0,1.103020588E-1,-5.781750226E-1,3.194164185E0
3.790100625E0,-2.899157986E0,2.297663025E-1,-2.652654870E0,3.936303779E0
3.800043625E0,-2.398024708E0,5.195001870E-1,-4.605717283E0,5.218528015E0
3.809987625E0,-1.580622844E0,1.372528625E0,-6.431606265E0,6.763709230E0
3.819930625E0,-1.010580128E0,2.165426270E0,-8.544462558E0,8.872326839E0
3.829873625E0,-1.064908948E0,2.453732593E0,-1.101409841E1,1.133424891E1
3.839816625E0,-1.486249075E0,2.051972452E0,-1.344017484E1,1.367690853E1
3.849759625E0,-1.874641604E0,1.031196826E0,-1.537732815E1,1.552545874E1
3.859702625E0,-2.282288429E0,-5.291260561E-2,-1.696467997E1,1.711759348E1
3.869645625E0,-2.744886803E0,-7.979244965E-1,-1.777377206E1,1.800216821E1
3.879588625E0,-2.498644764E0,-1.199771322E0,-1.770431182E1,1.791997025E1
3.889531625E0,-1.611955149E0,-1.438487264E0,-1.666913713E1,1.680856263E1
3.899474625E0,-4.591952938E-1,-1.682683361E0,-1.406491709E1,1.417265594E1
3.909417625E0,4.641186494E-1,-1.822985401E0,-1.059177273E1,1.075752441E1
3.919360625E0,1.511064366E0,-1.754186330E0,-6.917433872E0,7.294612846E0
3.929303625E0,2.545252628E0,-1.207846912E0,-4.101058719E0,4.975528888E0
3.939246625E0,3.547294652E0,-4.499575701E-1,-2.185067652E0,4.190498992E0
3.949189625E0,4.338218277E0,7.986317173E-2,-4.457162923E-1,4.361786212E0
3.959132625E0,5.017274727E0,4.508627191E-1,8.250672716E-1,5.104611530E0
3.969075625E0,5.464318337E0,7.907698435E-1,1.739145538E0,5.788671612E0
3.979018625E0,6.019324937E0,1.307406430E0,2.503400597E0,6.648954716E0
3.988962625E0,6.555344458E0,1.974637763E0,2.992728640E0,7.471824407E0
3.998905625E0,7.036508911E0,2.639025595E0,2.995905432E0,8.090263475E0
4.008848625E0,7.410087519E0,3.079465359E0,2.660459441E0,8.454025572E0
4.018791625E0,7.690370293E0,3.413287579E0,2.258102007E0,8.711564269E0
4.028734625E0,7.861041162E0,3.715724283E0,1.863534526E0,8.892431390E0
4.038677625E0,7.946203519E0,3.825082711E0,1.129882039E0,8.891009028E0
4.048620625E0,7.974864231E0,3.909985160E0,2.935471827E-1,8.886653667E0
4.058563625E0,7.979817408E0,4.013847205E0,-5.030822287E-1,8.946594155E0
4.068506625E0,7.897878621E0,3.934536156E0,-1.334951639E0,8.924077395E0
4.078449625E0,7.745189109E0,3.889630417E0,-2.165768332E0,8.933517313E0
4.088392625E0,7.524004143E0,3.858618540E0,-3.072501910E0,8.996657344E0
4.098335625E0,7.242741376E0,3.768452135E0,-3.992630583E0,9.088434029E0
4.108278625E0,6.932187567E0,3.762652282E0,-4.860843582E0,9.265018995E0
4.118222875E0,6.633801813E0,3.806212869E0,-5.657945960E0,9.513513304E0
4.128165875E0,6.324657767E0,3.860899538E0,-6.371607985E0,9.772677701E0
4.138108875E0,5.989295976E0,3.927458394E0,-6.987021586E0,1.000575166E1
4.148052875E0,5.677762758E0,4.008708379E0,-7.435356261E0,1.017797895E1
4.157995875E0,5.376925852E0,4.055648949E0,-7.784016960E0,1.029322787E1
4.167938875E0,5.032506139E0,4.137455297E0,-8.066234577E0,1.036864478E1
4.177881875E0,4.508813133E0,4.381741150E0,-8.399689007E0,1.049208401E1
4.187824875E0,3.919685106E0,4.498368251E0,-8.547183852E0,1.042370376E1
4.197767875E0,3.199522438E0,5.068360680E0,-9.508509375E0,1.123997217E1
4.207710875E0,2.501176024E0,4.636204666E0,-1.035755198E1,1.162020475E1
4.217653875E0,2.201271164E0,2.772421926E0,-1.033700955E1,1.092637563E1
4.227596875E0,1.900330469E0,1.314339766E0,-9.967509956E0,1.023181312E1
4.237539875E0,1.380731391E0,4.247964165E-1,-9.679494240E0,9.786699132E0
4.247482875E0,3.521342370E-1,-5.209974396E-1,-9.254869439E0,9.276208557E0
4.257425875E0,-7.101054570E-1,-1.136327425E0,-8.213266908E0,8.321853344E0
4.267368875E0,-1.474549089E0,-1.404636270E0,-6.496020362E0,6.807758707E0
4.277311875E0,-1.900313220E0,-1.392477863E0,-3.262789019E0,4.024422581E0
4.287254875E0,-1.678088912E0,-1.402984140E0,-1.681891356E0,2.759185645E0
4.297197875E0,4.302929746E0,-5.821496090E0,-7.762365305E0,1.061411024E1
4.307140875E0,-5.027508523E0,-1.158801198E1,2.622708355E0,1.290102565E1
4.317083875E0,-2.712572224E1,-8.263445958E0,2.857701052E1,4.025835163E1
4.327027875E0,-2.345328022E1,-5.020698856E0,2.883274434E1,3.750454527E1
4.336970875E0,-2.734238029E1,-4.459081979E0,3.340799179E1,4.340026598E1
4.346913875E0,-5.142454492E1,-9.920197796E0,4.648148656E1,7.002444386E1
4.356856875E0,-4.831154812E1,-6.602170715E0,3.933832678E1,6.265060489E1
4.366799875E0,-3.514484405E1,-3.263937704E-1,2.613773926E1,4.380009143E1
4.376742875E0,-2.166547298E1,3.601349822E0,1.206681357E1,2.505933817E1
4.386685875E0,-1.109185468E1,3.849945949E0,4.867891815E0,1.271014142E1
4.396628875E0,-7.743885764E0,2.519820456E0,4.660764726E0,9.382962735E0
4.406571875E0,-6.000355400E0,1.488720109E0,3.554183257E0,7.131112894E0
4.416514875E0,-4.351178046E0,9.246864308E-1,1.058098111E0,4.572457435E0
4.426457875E0,-3.139547839E0,7.503395632E-1,-1.692510484E0,3.644771849E0
4.436400875E0,-2.180893325E0,6.839080305E-1,-3.743821324E0,4.386367973E0
4.446343875E0,-1.126627479E0,9.615804613E-1,-5.361917803E0,5.562741140E0
4.456286875E0,5.961002469E-2,1.516421147E0,-6.826713152E0,6.993361059E0
4.466229875E0,9.833344424E-1,1.946597294E0,-7.758293304E0,8.058988934E0
4.476172875E0,1.646411621E0,1.923793153E0,-8.343330619E0,8.719106441E0
4.486115875E0,2.378453200E0,1.793133757E0,-8.674247357E0,9.171419492E0
4.496058875E0,3.015902617E0,1.774996717E0,-8.995244293E0,9.651979167E0
4.506002875E0,3.474350052E0,1.848215844E0,-9.272439737E0,1.007299105E1
4.515945875E0,3.920728249E0,1.897050035E0,-9.378098339E0,1.034019523E1
4.525888875E0,4.271997390E0,1.900510271E0,-9.380166500E0,1.048090762E1
4.535831875E0,4.521769393E0,1.848640936E0,-9.422990338E0,1.061398222E1
4.545774875E0,4.845534402E0,1.945217497E0,-9.511790248E0,1.085067871E1
4.555717875E0,5.327268957E0,2.145841313E0,-9.345544551E0,1.096921294E1
4.565660875E0,5.866040763E0,2.388885510E0,-9.049710522E0,1.104601597E1
4.575603875E0,6.380956514E0,2.662842181E0,-8.533800160E0,1.098330914E1
4.585546875E0,6.851862026E0,2.912940458E0,-7.866073276E0,1.083089766E1
4.595489875E0,7.256504552E0,3.133461765E0,-7.135692891E0,1.064864095E1
4.605432875E0,7.626669556E0,3.304772319E0,-6.382379726E0,1.047961734E1
4.615375875E0,7.983633885E0,3.432059188E0,-5.536105188E0,1.030368385E1
4.625318875E0,8.242522867E0,3.482370678E0,-4.671784388E0,1.009413979E1
4.635261875E0,8.357095549E0,3.477483867E0,-3.847835982E0,9.835638353E0
4.645204875E0,8.395505909E0,3.458275179E0,-2.973054805E0,9.554226371E0
4.655147875E0,8.921312099E0,3.513721109E0,-2.268876817E0,9.853113599E0
4.665090875E0,9.672328477E0,3.766170552E0,-1.862064536E0,1.054539061E1
4.675033875E0,9.821958725E0,3.907125579E0,-1.279403529E0,1.064769350E1
4.684977875E0,1.011654730E1,4.001975895E0,-6.774760202E-1,1.090042724E1
4.694920875E0,1.115749085E1,4.360781220E0,-3.857899332E-1,1.198561007E1
4.704863875E0,1.174106870E1,4.622295602E0,9.922724962E-2,1.261856398E1
4.714806875E0,1.143301165E1,4.623663558E0,1.148885782E0,1.238595812E1
4.724749875E0,1.073964648E1,4.327697967E0,2.148602661E0,1.177647951E1
4.734692875E0,1.003790459E1,4.009902673E0,2.960613392E0,1.120732259E1
4.744635875E0,9.467183009E0,3.549713645E0,3.622945928E0,1.074028669E1
4.754578875E0,8.949842418E0,3.094441833E0,4.231695749E0,1.037219834E1
4.764521875E0,8.387302850E0,2.587447890E0,4.829925844E0,1.001847889E1
4.774464875E0,7.842838780E0,2.079400571E0,5.480431509E0,9.791279609E0
4.784407875E0,7.368033174E0,1.695047007E0,6.067707138E0,9.694233705E0
4.794350875E0,7.077067537E0,1.434355913E0,6.805721648E0,9.922706736E0
4.804293875E0,7.214150246E0,1.021378328E0,8.140054505E0,1.092463568E1
4.814236875E0,7.634168025E0,7.228345531E-1,8.269348723E0,1.127763892E1
4.824179875E0,8.105883377E0,5.291499931E-1,8.396273648E0,1.168258346E1
4.834122875E0,8.855537939E0,3.884071469E-1,8.807979026E0,1.249607566E1
4.844066875E0,9.280749800E0,6.436091664E-1,7.868236161E0,1.218423941E1
4.854009875E0,7.725976912E0,7.356136429E-1,5.974517139E0,9.794217770E0
4.863952875E0,5.426354120E0,1.230834802E0,3.166291249E0,6.402005437E0
4.873895875E0,-2.538672522E1,2.944296152E0,-1.954864643E1,3.217614449E1
4.883838875E0,-6.375715070E1,-2.494855476E0,-4.160842172E1,7.617387562E1
4.893781875E0,-6.729221824E1,6.833459085E0,-4.622776886E1,8.192646344E1
4.903724875E0,-6.943378670E1,9.271628144E0,-6.321966996E1,9.435963381E1
4.913667875E0,-6.905068181E1,9.805904610E0,-4.277507689E1,8.181601082E1
4.923610875E0,-5.488914182E1,3.206083306E0,-1.234199582E0,5.499654633E1
4.933553875E0,-2.728649962E1,2.764298682E0,1.591901421E1,3.171134532E1
4.943496875E0,-1.276367187E1,4.930366391E0,8.396094139E0,1.605348028E1
4.953439875E0,-5.376085607E0,4.173091153E0,4.566435689E0,8.195689179E0
4.963382875E0,-5.730856061E-3,2.733571856E0,4.909659646E0,5.619359908E0
4.973325875E0,2.574745399E0,1.213753769E0,1.271742215E0,3.117665848E0
4.983268875E0,3.103096297E0,2.238257141E-1,-3.936554323E0,5.017545666E0
4.993211875E0,4.299072922E0,-3.530504957E-1,-5.890840559E0,7.301279007E0
5.003154875E0,8.272548319E0,-3.493591484E-1,-5.839689116E0,1.013208155E1
5.013097875E0,1.330852595E1,-2.697709420E-1,-5.845791855E0,1.453832596E1
5.023041875E0,9.799729950E0,-1.032485845E0,-7.414447203E0,1.233185961E1
5.032984875E0,4.508651165E0,-1.673773082E0,-9.203423297E0,1.038424056E1
5.042927875E0,4.676446373E0,-1.196800060E0,-1.041847646E1,1.148242713E1
5.052870875E0,4.708365739E0,-1.237056970E0,-1.153260844E1,1.251799007E1
5.062813875E0,4.300166937E0,-1.679863396E0,-1.249517007E1,1.332076018E1
5.072756875E0,6.221615794E0,-2.650357499E0,-1.332466076E1,1.494253935E1
5.082699875E0,8.297165682E0,-3.465069351E0,-1.380899732E1,1.647841227E1
5.092642875E0,8.028772051E0,-3.997597500E0,-1.512683343E1,1.758587661E1
5.102585875E0,5.765942279E0,-3.963521681E0,-1.656978826E1,1.798648041E1
5.112528875E0,2.889589018E0,-3.292892824E0,-1.769680633E1,1.823101265E1
5.122471167E0,2.930975318E-2,-2.526259117E0,-1.899200904E1,1.915931240E1
5.132414167E0,-2.104270826E0,-2.341242835E0,-1.966752149E1,1.991785067E1
5.142357167E0,-3.494332619E0,-2.251929686E0,-1.947100359E1,1.990983497E1
5.152300167E0,-4.080866529E0,-1.925864090E0,-1.902920435E1,1.955691801E1
5.162243167E0,-3.896832433E0,-1.353457200E0,-1.863012954E1,1.908137511E1
5.172186167E0,-3.066326958E0,-9.588755393E-1,-1.808581691E1,1.836895688E1
5.182129167E0,-1.761011639E0,-7.485252453E-1,-1.753158039E1,1.763569571E1
5.192073167E0,-4.868770359E-1,-9.218199795E-1,-1.703960268E1,1.707146335E1
5.202016167E0,9.580899659E-1,-1.233256426E0,-1.590157547E1,1.597807749E1
5.211959167E0,2.522943161E0,-1.535614486E0,-1.421221898E1,1.451587139E1
5.221902167E0,3.678202701E0,-1.836686012E0,-1.298345233E1,1.361883347E1
5.231845167E0,4.424879860E0,-2.124219479E0,-1.189096090E1,1.286416812E1
5.241788167E0,4.847570402E0,-2.242610247E0,-1.093400559E1,1.216884209E1
5.251731167E0,4.867071451E0,-2.095513597E0,-1.018802834E1,1.148370512E1
5.261674167E0,4.800513180E0,-1.769432068E0,-9.497934685E0,1.078826121E1
5.271617167E0,4.875204928E0,-1.398155217E0,-8.842798610E0,1.019399570E1
5.281560167E0,5.084132375E0,-1.170444174E0,-8.262391706E0,9.771666095E0
5.291503167E0,5.380678595E0,-1.113553762E0,-7.833756300E0,9.568669807E0
5.301446167E0,5.555479937E0,-1.218897492E0,-7.313349429E0,9.264672055E0
5.311389167E0,5.644063500E0,-1.356865980E0,-6.783096431E0,8.927874063E0
5.321332167E0,5.540434467E0,-1.548512859E0,-6.501609131E0,8.681314845E0
5.331275167E0,5.202774135E0,-1.720721253E0,-6.438462126E0,8.454793603E0
5.341218167E0,4.869307426E0,-1.491737272E0,-6.151750923E0,7.986205251E0
5.351162167E0,4.099816770E0,-7.867279556E-1,-5.532586334E0,6.930869351E0
5.361105167E0,9.602297544E-3,5.663127762E-1,-3.246414476E0,3.295452824E0
5.371048167E0,-1.750833888E1,7.311024430E-1,3.364056654E0,1.784357919E1
5.380991167E0,-4.726070523E1,8.769586793E-1,1.396077935E1,4.928738861E1
5.390934167E0,-6.717212578E1,3.345008472E0,3.101759156E1,7.406331447E1
5.400877167E0,-6.969488593E1,4.223119930E0,4.313102732E1,8.207007605E1
5.410820167E0,-6.627344148E1,5.001532853E0,5.196007971E1,8.436251691E1
5.420763167E0,-3.972451432E1,5.975925148E0,3.416545180E1,5.273544174E1
5.430706167E0,-1.786045820E1,5.554729739E0,1.909257764E1,2.672784149E1
5.440649167E0,-9.288780366E0,5.001565597E0,1.212524246E1,1.607229305E1
5.450592167E0,-4.655757170E0,3.398478920E0,7.006895687E0,9.073164882E0
5.460535167E0,-3.421028123E0,1.933582123E0,3.022930678E0,4.957850656E0
5.470478167E0,-2.959871088E0,1.166830010E0,3.514129829E-1,3.200909279E0
5.480421167E0,-2.348909558E0,1.287613312E0,-1.740710253E0,3.194588602E0
5.490364167E0,-2.152827274E0,1.650209095E0,-2.913141895E0,3.980483768E0
5.500307167E0,-2.267055556E0,1.512773800E0,-3.368233613E0,4.332784686E0
5.510250167E0,-2.565579888E0,1.015606322E0,-3.383497769E0,4.365972231E0
5.520193167E0,-2.597579361E0,4.077587264E-1,-3.077577294E0,4.047859646E0
5.530136167E0,-2.110758312E0,9.316953421E-3,-3.033519108E0,3.695622496E0
5.540080167E0,-1.424189360E0,-2.585773247E-1,-3.338298208E0,3.638600347E0
5.550023167E0,-3.646358764E-1,-3.459817967E-1,-3.793956521E0,3.827109720E0
5.559966167E0,1.069066318E0,-3.021279716E-1,-4.234724899E0,4.378022279E0
5.569909167E0,2.541748976E0,-4.888427602E-1,-4.377372110E0,5.085355611E0
5.579852167E0,3.959093585E0,-5.998094282E-1,-4.401464100E0,5.950384827E0
5.589795167E0,5.138204502E0,-7.152363887E-1,-4.495246131E0,6.864397014E0
5.599738167E0,5.977780470E0,-8.994385922E-1,-4.527125443E0,7.552331686E0
5.609681167E0,6.681334999E0,-9.266149887E-1,-4.414361889E0,8.061354947E0
5.619624167E0,7.277773215E0,-7.544887474E-1,-4.388268104E0,8.531830588E0
5.629567167E0,7.693415523E0,-5.970878416E-1,-4.528810025E0,8.947361429E0
5.639510167E0,8.001564957E0,-4.537375027E-1,-4.876786892E0,9.381576087E0
5.649453167E0,8.251403618E0,-2.098577392E-1,-5.303722220E0,9.811175838E0
5.659396167E0,8.480072435E0,1.065503025E-1,-5.554493512E0,1.013781927E1
5.669339167E0,8.730133874E0,3.225224751E-1,-5.450849276E0,1.029713630E1
5.679282167E0,8.942051003E0,3.918704528E-1,-5.140932813E0,1.032196826E1
5.689225167E0,9.110575359E0,3.542520985E-1,-4.767771988E0,1.028881566E1
5.699168167E0,9.252569144E0,3.810957885E-1,-4.569373038E0,1.032639529E1
5.709112167E0,9.577912316E0,5.460284927E-1,-4.271815542E0,1.050156938E1
5.719055167E0,9.754028113E0,5.908301514E-1,-3.671101842E0,1.043873237E1
5.728998167E0,9.767899463E0,5.623244270E-1,-2.944491157E0,1.021753869E1
5.738941167E0,9.876682817E0,5.662896797E-1,-2.307822343E0,1.015852309E1
5.748884167E0,1.006079293E1,6.295892244E-1,-1.719480036E0,1.022607200E1
5.758827167E0,1.033905490E1,7.010824724E-1,-1.209298849E0,1.043311922E1
5.768770167E0,1.121788908E1,1.009092597E0,-1.282681478E0,1.133598584E1
5.778713167E0,1.207428982E1,1.429422910E0,-1.378721995E0,1.223652724E1
5.788656167E0,1.221842018E1,1.565274049E0,-6.589368383E-1,1.233588555E1
5.798599167E0,1.228023110E1,1.580800453E0,-1.563382474E-1,1.238254608E1
5.808542167E0,1.293677518E1,1.874864529E0,-3.565116819E-1,1.307678744E1
5.818485167E0,1.366633462E1,2.452944973E0,-9.377809048E-1,1.391635994E1
5.828428167E0,1.364137753E1,2.751938837E0,-6.548671031E-1,1.393158998E1
5.838371167E0,1.321059912E1,2.794672628E0,-1.561991568E-1,1.350387065E1
5.848314167E0,1.257015710E1,2.542946194E0,1.903759861E-1,1.282621019E1
5.858257167E0,1.196199522E1,2.215348043E0,4.902679825E-1,1.217528066E1
5.868201167E0,1.158043750E1,2.116099305E0,7.219593711E-1,1.179430516E1
5.878144167E0,1.112465288E1,2.009661561E0,9.639487298E-1,1.134574099E1
5.888087167E0,1.057010295E1,1.838248095E0,1.202126873E0,1.079589466E1
5.898030167E0,1.012466206E1,1.672731985E0,1.361863011E0,1.035188316E1
5.907973167E0,9.878218296E0,1.498539192E0,1.422377454E0,1.009197572E1
5.917916167E0,9.715137697E0,1.298471007E0,1.342247356E0,9.893005377E0
5.927859167E0,9.632934031E0,1.163986216E0,1.174768482E0,9.773861209E0
5.937802167E0,9.965256439E0,1.058780627E0,9.096324818E-1,1.006254359E1
5.947745167E0,1.011508549E1,5.341811568E-1,-9.036988735E-2,1.012958394E1
5.957688167E0,4.948718462E0,-9.535646595E-1,-6.618482108E0,8.318858419E0
5.967631167E0,-4.026583318E0,-8.325721729E-1,-1.079414837E1,1.155076572E1
5.977574167E0,-4.580008947E1,-3.254082515E0,-5.513020381E0,4.624533103E1
5.987517167E0,-7.084621672E1,-1.198839539E1,-2.127077014E0,7.188485588E1
5.997460167E0,-6.942981995E1,1.329934582E-1,1.272858390E1,7.058706987E1
6.007403167E0,-7.046011806E1,2.044979767E0,2.974832008E1,7.650995181E1
6.017346167E0,-6.392361859E1,5.865711565E0,2.214238826E1,6.790376237E1
6.027289167E0,-1.763514043E1,8.395345110E0,2.600859064E1,3.252578645E1
6.037233167E0,1.815806628E1,1.125484582E1,3.364051918E1,3.985061425E1
6.047176167E0,2.298782782E1,7.903576732E0,2.655506206E1,3.600108434E1
6.057119167E0,1.639913142E1,2.668095320E0,1.713812125E1,2.386976003E1
6.067062167E0,8.836256745E0,1.684188142E0,1.079606743E1,1.405243733E1
6.077005167E0,6.950501631E0,6.499174351E-1,5.244526763E0,8.731375983E0
6.086948167E0,5.594977294E0,5.953810394E-2,1.130336952E0,5.708325265E0
6.096891167E0,1.595030383E0,4.757350203E-1,-1.512979329E0,2.249344834E0
6.106834167E0,1.039938998E0,3.057228398E-1,-2.936435448E0,3.130110655E0
6.116776125E0,2.024031824E0,-2.898292306E-1,-4.875636452E0,5.287015853E0
6.126719125E0,2.817060447E0,-2.725217646E-1,-6.730124166E0,7.301004655E0
6.136662125E0,3.861663185E0,-1.653075108E-1,-7.378058810E0,8.329196896E0
6.146605125E0,4.196151402E0,-1.051472631E-1,-8.462409750E0,9.446222595E0
6.156548125E0,4.139543923E0,2.018306816E-1,-9.270236506E0,1.015449873E1
6.166491125E0,4.229889252E0,6.754706445E-1,-1.014236860E1,1.100980765E1
6.176434125E0,4.538657321E0,1.038457606E0,-1.156378580E1,1.246591138E1
6.186377125E0,4.823566997E0,1.205721303E0,-1.316667835E1,1.407416005E1
6.196320125E0,5.257658440E0,1.128990923E0,-1.400348624E1,1.500050731E1
6.206264125E0,5.696192597E0,1.061951426E0,-1.403482147E1,1.518389162E1
6.216207125E0,6.095439312E0,1.100130529E0,-1.307136405E1,1.446461979E1
6.226150125E0,6.537133890E0,1.020385032E0,-1.158659461E1,1.334258145E1
6.236093125E0,7.030630705E0,1.137583699E0,-9.802796815E0,1.211687625E1
6.246036125E0,7.200054948E0,8.487268603E-1,-7.581571736E0,1.049005999E1
6.255979125E0,7.187868766E0,2.739406098E-1,-5.481796249E0,9.043815067E0
6.265922125E0,7.113640117E0,-2.408497181E-1,-2.511715922E0,7.547887199E0
6.275865125E0,8.222532406E0,-3.141022288E-1,2.700079004E-1,8.232958377E0
6.285808125E0,1.069952756E1,-8.539566100E-2,1.335070192E0,1.078283798E1
6.295751125E0,1.324405221E1,3.039339207E-1,2.156958624E0,1.342198813E1
6.305694125E0,1.421258735E1,5.637537788E-1,3.265583695E0,1.459381699E1
6.315637125E0,1.380525861E1,7.402256343E-1,4.468389577E0,1.452926718E1
6.325580125E0,1.305152913E1,6.645930693E-1,5.409638684E0,1.414384273E1
6.335523125E0,1.256286913E1,7.682125280E-1,5.871814304E0,1.388862968E1
6.345466125E0,1.232092421E1,1.010520779E0,5.973298579E0,1.372977136E1
6.355409125E0,1.198582028E1,1.138283391E0,6.135916663E0,1.351314361E1
6.365353125E0,1.162470209E1,1.218528386E0,6.330430139E0,1.329258650E1
6.375296125E0,1.123912266E1,1.291801088E0,6.557224923E0,1.307607842E1
6.385239125E0,1.092405947E1,1.350316660E0,6.729427763E0,1.290130336E1
6.395182125E0,1.062076791E1,1.406457240E0,6.849283989E0,1.271579821E1
6.405125125E0,1.038709212E1,1.457629147E0,7.014523965E0,1.261823727E1
6.415068125E0,9.844317309E0,1.483704513E0,7.164812610E0,1.226566354E1
6.425011125E0,9.078023910E0,1.424027684E0,7.265209302E0,1.171416404E1
6.434954125E0,8.361010845E0,1.364152488E0,7.404756027E0,1.125156994E1
6.444897125E0,7.805272173E0,1.339248758E0,7.553758870E0,1.094418266E1
6.454840125E0,7.415080456E0,1.352525446E0,7.496795295E0,1.063083642E1
6.464783125E0,7.143590725E0,1.375998508E0,7.395351951E0,1.037378864E1
6.474726125E0,6.952924717E0,1.400006007E0,7.221218360E0,1.012171791E1
6.484669125E0,6.843694051E0,1.440571065E0,7.145578778E0,9.998534359E0
6.494612125E0,6.851937456E0,1.497673511E0,6.984941146E0,9.898559272E0
6.504555125E0,6.875124589E0,1.522903516E0,6.639692883E0,9.678434523E0
6.514498125E0,6.857741402E0,1.465301864E0,6.396976131E0,9.491945549E0
6.524442125E0,6.952642881E0,1.156926873E0,6.493252290E0,9.583321352E0
6.534385125E0,4.860817854E0,1.646621975E0,3.544116105E0,6.236960245E0
6.544328125E0,-7.865485046E0,4.669176019E-1,-8.517513326E0,1.160309874E1
6.554271125E0,-5.632602256E1,-1.934672570E1,-4.496918610E1,7.462669972E1
6.564214125E0,-7.533728531E1,-2.732850368E1,-7.049724086E1,1.067352549E2
6.574157125E0,-6.365058636E1,2.218195929E0,-7.068289229E1,9.514404238E1
6.584100125E0,-3.778789779E1,1.279551581E1,-6.907734511E1,7.977048358E1
6.594043125E0,-2.118485524E1,8.176629424E0,-4.453249732E1,4.998798534E1
6.603986125E0,-1.036652746E1,5.961757929E0,-1.922273783E1,2.263892884E1
6.613929125E0,-4.487887117E0,2.832246543E0,-1.019786569E1,1.149605219E1
6.623872125E0,-1.031148294E0,1.676856319E0,-4.857938685E0,5.241629726E0
6.633815125E0,1.527289220E0,1.380066270E0,-5.934456110E-1,2.142282186E0
6.643758125E0,3.323881313E0,1.290560309E0,1.823351290E0,4.004789984E0
6.653701125E0,4.519373204E0,1.238391743E0,2.821967431E0,5.470086695E0
6.663644125E0,5.483581404E0,1.112269641E0,3.265771099E0,6.478585466E0
6.673587125E0,6.156980672E0,1.002229427E0,3.512953954E0,7.159170365E0
6.683530125E0,6.933035413E0,1.124517511E0,3.456770983E0,7.828204475E0
6.693474125E0,7.699397224E0,1.376072037E0,2.897833300E0,8.340966952E0
6.703417125E0,8.619727918E0,1.533915870E0,2.329306183E0,9.059706097E0
6.713360125E0,9.591000139E0,1.655692322E0,2.102772185E0,9.957421935E0
6.723303125E0,1.026236867E1,1.707501868E0,2.568703471E0,1.071587658E1
6.733246125E0,1.059891569E1,1.614907992E0,3.430110603E0,1.125658032E1
6.743189125E0,1.057071574E1,1.461061901E0,4.412673213E0,1.154757195E1
6.753132125E0,1.023287064E1,1.320518226E0,5.125545865E0,1.152070442E1
6.763075125E0,9.863102074E0,1.230121149E0,5.579842946E0,1.139862395E1
6.773018125E0,9.607607401E0,1.147150621E0,5.837384729E0,1.130031570E1
6.782961125E0,9.668343599E0,1.087543812E0,5.926499804E0,1.139223505E1
6.792904125E0,9.958617511E0,1.041500497E0,5.969382114E0,1.165728565E1
6.802847125E0,1.012214191E1,9.586767340E-1,6.067861505E0,1.184042910E1
6.812790125E0,1.015404081E1,8.658024842E-1,6.244591259E0,1.195194874E1
6.822733125E0,1.000255232E1,7.714194334E-1,6.425615208E0,1.191363386E1
6.832676125E0,9.726441534E0,6.925161552E-1,6.618900769E0,1.178529130E1
6.842619125E0,9.413097433E0,6.168508458E-1,6.824981791E0,1.164333649E1
6.852563125E0,9.097331416E0,5.895668605E-1,7.007614310E0,1.149850800E1
6.862506125E0,8.781602821E0,5.709411763E-1,7.194332862E0,1.136665946E1
6.872449125E0,8.529804173E0,5.437303177E-1,7.386578203E0,1.129666940E1
6.882392125E0,8.323761157E0,5.186760585E-1,7.490785527E0,1.121007995E1
6.892335125E0,8.148575068E0,5.581706015E-1,7.629982588E0,1.117709552E1
6.902278125E0,7.983134533E0,6.739426940E-1,7.797347442E0,1.117959135E1
6.912221125E0,7.814530655E0,8.240826736E-1,7.946496465E0,1.117554507E1
6.922164125E0,7.653603001E0,9.542415478E-1,8.051175073E0,1.114942312E1
6.932107125E0,7.482454998E0,1.077800816E0,8.190851022E0,1.114624725E1
6.942050125E0,7.318437091E0,1.153258038E0,8.430160017E0,1.122306213E1
6.951993125E0,7.170682629E0,1.239914358E0,8.663277395E0,1.131408203E1
6.961936125E0,7.056917447E0,1.289614230E0,8.832740230E0,1.137894937E1
6.971879125E0,6.915776771E0,1.306619541E0,8.835210094E0,1.129584704E1
6.981822125E0,6.728110970E0,1.335010111E0,8.679084173E0,1.106237910E1
6.991765125E0,6.572478554E0,1.338662282E0,8.439764069E0,1.078049668E1
7.001709125E0,6.394534918E0,1.283164020E0,8.265579607E0,1.052883626E1
7.011652125E0,6.102854167E0,1.266614645E0,8.167967359E0,1.027447480E1
7.021595125E0,5.830763342E0,1.274656175E0,8.051428843E0,1.002237776E1
7.031538125E0,5.565627195E0,1.215991937E0,7.930738218E0,9.764806765E0
7.041481125E0,4.882554878E0,1.074477478E0,8.003905013E0,9.436966644E0
7.051424125E0,4.203848677E0,1.090911954E0,8.036538908E0,9.135009043E0
7.061367125E0,-9.147047367E0,-1.820218206E0,-1.575994188E-1,9.327727881E0
7.071310125E0,-3.634909448E1,-5.647358406E0,-6.503619404E0,3.735567416E1
7.081253125E0,-4.143052135E1,-2.200060205E0,-9.097959407E0,4.247471283E1
7.091196125E0,-2.838617143E1,-1.337542102E0,-8.836301769E0,2.975977111E1
7.101139125E0,-4.186989400E0,-3.661278520E0,2.573682375E0,6.128595402E0
7.111082125E0,4.104415020E0,-1.216138176E1,1.035911436E0,1.287705485E1
7.121025500E0,5.359587103E0,-7.431731572E0,-2.569232644E1,2.727730643E1
7.130968500E0,-1.555388366E1,2.141616700E0,-6.427158405E1,6.616151703E1
7.140911500E0,-2.785974661E1,3.398157908E0,-7.052318378E1,7.590278262E1
7.150854500E0,-1.841434389E1,5.160233887E0,-6.367611297E1,6.648581381E1
7.160798500E0,-1.126675075E1,4.062094920E0,-3.290582121E1,3.501761496E1
7.170741500E0,-8.788180354E0,3.475157552E0,-1.653147029E1,1.904201522E1
7.180684500E0,-5.483490188E0,2.644126121E0,-1.169609659E1,1.318555054E1
7.190627500E0,-2.434586178E0,1.853497341E0,-6.953807647E0,7.597243121E0
7.200570500E0,-6.373456290E-1,1.529223479E0,-3.292690510E0,3.685993041E0
7.210513500E0,9.052846384E-1,1.428395554E0,3.015724862E-1,1.717789306E0
7.220456500E0,2.275935430E0,1.417353087E0,2.877676778E0,3.933166090E0
7.230399500E0,3.328948217E0,1.183020511E0,4.438398038E0,5.672813315E0
7.240342500E0,4.101507785E0,7.880604630E-1,5.625362935E0,7.006290998E0
7.250285500E0,4.740203828E0,5.832202561E-1,6.550165579E0,8.106438633E0
7.260228500E0,5.372860867E0,4.993425688E-1,7.161894264E0,8.967145942E0
7.270171500E0,5.943678339E0,4.731207302E-1,7.449680185E0,9.541954217E0
7.280114500E0,6.345130624E0,5.303568584E-1,7.536559285E0,9.866189076E0
7.290057500E0,6.565397576E0,5.180445957E-1,7.598380727E0,1.005525759E1
7.300000500E0,6.581982034E0,4.514610355E-1,7.707750556E0,1.014572438E1
7.309944500E0,6.587850884E0,5.026921098E-1,7.825307073E0,1.024147985E1
7.319887500E0,6.789690337E0,7.545430534E-1,8.027323111E0,1.054073747E1
7.329830500E0,7.084442046E0,9.513332158E-1,8.129351762E0,1.082500411E1
7.339773500E0,7.349917331E0,1.031041290E0,8.193071210E0,1.105489696E1
7.349716500E0,7.478513390E0,1.067986776E0,8.109171851E0,1.108275356E1
7.359659500E0,7.474630255E0,1.103730221E0,8.077738974E0,1.106065933E1
7.369602500E0,7.443142998E0,1.143143158E0,8.184679871E0,1.112187658E1
7.379545500E0,7.382812012E0,1.242212314E0,8.377675409E0,1.123541054E1
7.389488500E0,7.351382643E0,1.429128064E0,8.563674755E0,1.137636845E1
7.399431500E0,7.299516671E0,1.606861347E0,8.755872148E0,1.151217808E1
7.409374500E0,7.164538375E0,1.790015144E0,9.025397215E0,1.166158477E1
7.419317500E0,6.865850905E0,1.922565384E0,9.384894558E0,1.178611099E1
7.429260500E0,6.354903660E0,1.996440568E0,9.839141353E0,1.188188866E1
7.439203500E0,5.589073945E0,1.999373093E0,1.026415792E1,1.185698858E1
7.449146500E0,4.671584414E0,2.004186082E0,1.084635466E1,1.197847537E1
7.459089500E0,3.321149493E0,1.938278460E0,1.296766368E1,1.352579974E1
7.469033500E0,5.759266220E-1,1.770169841E0,2.108549000E1,2.116750059E1
7.478976500E0,-1.571704524E0,1.544001878E0,2.438825468E1,2.448757160E1
7.488919500E0,-1.399868889E0,1.184734038E0,2.039380883E1,2.047609987E1
7.498862500E0,1.807745656E-1,9.722469521E-1,1.717633865E1,1.720478285E1
7.508805500E0,1.734801056E0,9.479416846E-1,1.424419623E1,1.438072510E1
7.518748500E0,2.873588697E0,1.009881240E0,1.151876925E1,1.191467235E1
7.528691500E0,3.747378185E0,1.211882368E0,9.328380049E0,1.012571857E1
7.538634500E0,4.558029147E0,1.651203268E0,7.991096102E0,9.346642116E0
7.548577500E0,5.168441039E0,2.016160595E0,7.476471543E0,9.309957736E0
7.558520500E0,5.374168305E0,2.137064789E0,7.458770267E0,9.438325316E0
7.568463500E0,5.444338401E0,2.126530884E0,7.578706600E0,9.570775724E0
7.578406500E0,5.717077097E0,2.173890261E0,7.797119985E0,9.909886451E0
7.588349500E0,5.960283846E0,2.254526580E0,7.913467298E0,1.016025779E1
7.598292500E0,5.720647407E0,2.198966776E0,7.926795441E0,1.001974788E1
7.608235500E0,5.432895400E0,2.063109059E0,7.872250274E0,9.784942299E0
7.618178500E0,5.280897029E0,1.888874604E0,7.851314903E0,9.648775384E0
7.628122500E0,5.181668025E0,1.792932320E0,7.824109563E0,9.554108032E0
7.638065500E0,4.988697045E0,1.637364955E0,7.747819186E0,9.359314310E0
7.648008500E0,4.353375722E0,1.265910933E0,7.376840835E0,8.658648357E0
7.657951500E0,2.197630102E0,5.010414773E-1,4.192931340E0,4.760387994E0
7.667894500E0,-3.679150827E0,-2.942285587E0,-4.415030226E0,6.456445398E0
7.677837500E0,-1.201745138E1,-5.440521923E0,-3.075974104E1,3.346909149E1
7.687780500E0,-4.198959469E1,-1.119671748E1,-6.846710162E1,8.109399823E1
7.697723500E0,-5.495114101E1,-2.960423358E0,-7.020042216E1,8.919916634E1
7.707666500E0,-5.042209359E1,2.039843573E0,-6.934370215E1,8.576186514E1
7.717609500E0,-3.089740087E1,1.354297152E0,-5.137477810E1,5.996541775E1
7.727552500E0,-1.656774992E1,1.071349217E0,-2.222422823E1,2.774084438E1
7.737495500E0,-8.210435686E0,9.829404862E-1,-1.124697430E1,1.395965103E1
7.747438500E0,-3.544567510E0,8.236504912E-1,-7.173021516E0,8.043295135E0
7.757381500E0,-7.115810019E-1,1.033810678E0,-4.652830054E0,4.819122280E0
7.767325500E0,9.388289452E-1,1.457564243E0,-1.366118907E0,2.207300201E0
7.777268500E0,2.512469044E0,1.464403000E0,1.354795189E0,3.208184354E0
7.787211500E0,3.715818424E0,1.136492024E0,2.707850831E0,4.736177446E0
7.797154500E0,4.175258131E0,9.476200877E-1,3.478888661E0,5.516650307E0
7.807097500E0,4.533065044E0,1.033623274E0,3.734339479E0,5.963417402E0
7.817040500E0,4.908840451E0,1.203368749E0,3.833305358E0,6.343425013E0
7.826983500E0,5.172328268E0,1.162386126E0,4.203121283E0,6.765378758E0
7.836926500E0,5.486645930E0,9.838235620E-1,4.787046458E0,7.347585055E0
7.846869500E0,5.812624109E0,8.115771604E-1,5.389955202E0,7.968492556E0
7.856812500E0,6.115977073E0,6.423327193E-1,5.946887290E0,8.554720061E0
7.866755500E0,6.351037481E0,5.220139415E-1,6.412476515E0,9.040355673E0
7.876698500E0,6.454406898E0,4.442817144E-1,6.774694567E0,9.367669995E0
7.886641500E0,6.576723633E0,3.765242160E-1,7.012730623E0,9.621510018E0
7.896584500E0,6.813276250E0,4.123649436E-1,7.130506411E0,9.870911801E0
7.906527500E0,7.182308064E0,5.166721811E-1,7.168708609E0,1.016085048E1
7.916470500E0,7.591588601E0,6.155659202E-1,7.150866416E0,1.044729771E1
7.926414500E0,8.002177160E0,7.149377422E-1,7.100523058E0,1.072209881E1
7.936357500E0,8.390194883E0,7.810014119E-1,7.083888899E0,1.100848833E1
7.946300500E0,8.725198240E0,7.583359960E-1,7.094956509E0,1.127131606E1
7.956243500E0,8.977058283E0,6.705717011E-1,7.080830805E0,1.145318326E1
7.966186500E0,9.159018956E0,5.725059278E-1,7.081191579E0,1.159131854E1
7.976129500E0,9.356291733E0,5.196519953E-1,7.072507879E0,1.174012781E1
7.986072500E0,9.521732268E0,5.941213299E-1,7.113313842E0,1.190023527E1
7.996015500E0,9.591198360E0,7.025055385E-1,7.166572037E0,1.199351303E1
8.005958500E0,9.650914219E0,8.608298658E-1,7.281790252E0,1.212046379E1
8.015901500E0,9.738085679E0,1.036348004E0,7.378995534E0,1.226188831E1
8.025844500E0,9.770306761E0,1.244290414E0,7.589457875E0,1.243410727E1
8.035787500E0,9.695656528E0,1.444385350E0,7.799334911E0,1.252683638E1
8.045730500E0,9.378717560E0,1.576732691E0,8.029628668E0,1.244674116E1
8.055673500E0,8.768884542E0,1.640129372E0,8.284915765E0,1.217469465E1
8.065616500E0,8.092737082E0,1.668035209E0,8.504447138E0,1.185750210E1
8.075560500E0,7.380716954E0,1.658267289E0,8.742041144E0,1.156062786E1
8.085503500E0,6.616915639E0,1.680579241E0,9.130902035E0,1.140093378E1
8.095446500E0,5.854249853E0,1.785570530E0,9.556386377E0,1.134834896E1
8.105389500E0,5.234471891E0,1.866709418E0,9.910280918E0,1.136212867E1
8.115332500E0,4.675353236E0,1.899111909E0,1.026950929E1,1.144239376E1
8.125275250E0,4.147386501E0,1.944007416E0,1.055485809E1,1.150586846E1
8.135218250E0,3.603579073E0,1.888751959E0,1.069501468E1,1.144274902E1
8.145161250E0,3.160841937E0,1.814181394E0,1.057834986E1,1.118855048E1
8.155104250E0,3.118397291E0,1.834960352E0,1.037180516E1,1.098479965E1
8.165047250E0,3.041369288E0,1.789114235E0,1.024368682E1,1.083438861E1
8.174990250E0,2.787479091E0,1.687630837E0,1.010490315E1,1.061730687E1
8.184933250E0,2.478222194E0,1.589707078E0,9.925840359E0,1.035331158E1
8.194876250E0,9.419694847E-1,1.422390902E0,8.876663929E0,9.039118591E0
8.204819250E0,-1.218457708E0,1.264137180E0,7.936393061E0,8.128284986E0
8.214762250E0,-5.932556350E0,1.167988928E0,7.682984090E-1,6.095055818E0
8.224705250E0,-3.385669542E1,-3.541529297E0,-2.926271116E1,4.489013833E1
8.234649250E0,-4.095406215E1,-9.808113104E0,-3.591529657E1,5.534747345E1
8.244592250E0,4.409816556E0,-6.500419223E0,2.682082736E-1,7.859635348E0
8.254535250E0,2.066602244E1,-4.391149904E0,1.119597956E0,2.115703620E1
8.264478250E0,-9.639232067E0,-4.272337114E0,-6.360303213E1,6.447102725E1
8.274421250E0,-2.171008256E1,-3.142162129E0,-7.024595560E1,7.359140673E1
8.284364250E0,-7.559480663E-1,-2.265959787E-1,-6.518172890E1,6.518650616E1
8.294307250E0,-9.675647941E0,-4.880093493E-1,-4.636601107E1,4.736732311E1
8.304250250E0,-1.420944740E1,1.916483841E0,-1.948647181E1,2.419305457E1
8.314193250E0,-1.063920885E1,2.254995527E0,-4.163878280E0,1.164541335E1
8.324136250E0,-8.085594124E0,2.042161263E0,-1.245655739E-1,8.340429937E0
8.334079250E0,-5.015730477E0,1.589802972E0,-1.521293485E0,5.477167112E0
8.344022250E0,-1.758986894E0,1.279246239E0,-5.742638201E-1,2.249507673E0
8.353965250E0,5.398666969E-1,1.013094431E0,1.575971968E0,1.949744604E0
8.363908250E0,1.889481253E0,8.042174162E-1,4.318153557E0,4.781564095E0
8.373852250E0,3.237473499E0,3.309703861E-1,4.829068058E0,5.823287246E0
8.383795250E0,4.350304472E0,1.609894517E-1,5.965814728E0,7.385256391E0
8.393738250E0,4.874681894E0,1.819097112E-2,7.393620590E0,8.855985542E0
8.403681250E0,5.179679972E0,-2.891825468E-2,7.868806264E0,9.420617438E0
8.413624250E0,5.545863022E0,-8.515316600E-2,8.055842321E0,9.780615687E0
8.423567250E0,5.864968969E0,-1.360179853E-1,8.146806285E0,1.003926365E1
8.433510250E0,6.163397992E0,-2.247484413E-1,8.075660874E0,1.016141158E1
8.443453250E0,6.574284174E0,-2.591878837E-1,7.962772189E0,1.032928515E1
8.453396250E0,7.101982523E0,-1.096375958E-1,8.018656953E0,1.071209762E1
8.463339250E0,7.592091461E0,1.423768872E-1,8.142100446E0,1.113345964E1
8.473282250E0,7.937159046E0,3.556296294E-1,8.198154194E0,1.141642231E1
8.483225250E0,8.043950254E0,3.941875581E-1,8.352834098E0,1.160303223E1
8.493168250E0,7.840789331E0,4.617774242E-1,8.638630797E0,1.167549390E1
8.503111250E0,7.341215504E0,6.462909188E-1,8.922044755E0,1.157212252E1
8.513054250E0,6.254825640E0,1.042425161E0,9.363803651E0,1.130885993E1
8.522998250E0,4.524647685E0,1.672291251E0,1.023639183E1,1.131603784E1
8.532941250E0,2.351210437E0,2.128507827E0,1.100863243E1,1.145638355E1
8.542884250E0,-1.956919822E-1,2.304839825E0,1.128222131E1,1.151690495E1
8.552827250E0,-2.978100953E0,2.219435100E0,1.162832502E1,1.220708484E1
8.562770250E0,-5.854189042E0,1.949335691E0,1.141626288E1,1.297699878E1
8.572713250E0,-8.235043693E0,1.764742163E0,1.114867675E1,1.397223149E1
8.582656250E0,-1.003124461E1,1.746589189E0,1.069279625E1,1.476524073E1
8.592599250E0,-1.130770231E1,1.691459594E0,9.760288142E0,1.503291029E1
8.602542250E0,-1.221070770E1,1.618169277E0,8.648829510E0,1.505065136E1
8.612485250E0,-1.256499050E1,1.528939597E0,7.280614961E0,1.460219150E1
8.622428250E0,-1.272581933E1,1.497061600E0,5.940883954E0,1.412380166E1
8.632371250E0,-1.280686408E1,1.663283469E0,5.046078111E0,1.386525095E1
8.642314250E0,-1.295846133E1,1.840920419E0,4.211840651E0,1.374955671E1
8.652257250E0,-1.293222956E1,1.853302775E0,3.487456001E0,1.352182095E1
8.662200250E0,-1.285415519E1,1.867611789E0,2.629278871E0,1.325256152E1
8.672144250E0,-1.273739799E1,1.957070534E0,1.766911626E0,1.300743669E1
8.682087250E0,-1.257513074E1,2.110969542E0,1.175811333E0,1.280518012E1
8.692030250E0,-1.237616286E1,1.965709210E0,4.524120120E-1,1.253946157E1
8.701973250E0,-1.206883554E1,1.582286669E0,-4.521396048E-1,1.218051118E1
8.711916250E0,-1.163594628E1,1.319030987E0,-1.239239151E0,1.177585676E1
8.721859250E0,-1.117508863E1,1.125127814E0,-1.883237596E0,1.138837575E1
8.731802250E0,-1.067996512E1,1.026995675E0,-2.319347498E0,1.097705552E1
8.741745250E0,-1.010839745E1,8.752743888E-1,-2.678093766E0,1.049371195E1
8.751688250E0,-9.443314090E0,5.842748380E-1,-3.007059288E0,9.927737086E0
8.761631250E0,-8.876272166E0,3.244698903E-1,-3.188900678E0,9.437297060E0
8.771574250E0,-8.374996215E0,5.023226023E-2,-3.359447587E0,9.023800362E0
8.781517250E0,-7.606575599E0,-1.129435896E0,-3.930717047E0,8.636327593E0
8.791460250E0,3.106933824E0,-1.454233289E1,-9.433807687E0,1.761048583E1
8.801403250E0,2.009684979E1,-3.218272178E1,-1.060804203E1,3.939722717E1
8.811347250E0,1.937764694E1,-1.770887499E1,-2.244269541E0,2.634642671E1
8.821290250E0,4.434460523E1,2.684186097E1,3.573599989E1,6.296023508E1
8.831233250E0,7.208124690E1,6.600912862E1,7.377970868E1,1.224596122E2
8.841176250E0,6.087713971E1,6.006451707E1,6.715472915E1,1.087360566E2
8.851119250E0,4.045472397E1,3.212113189E1,3.928742794E1,6.489879659E1
8.861062250E0,2.988106825E1,-2.157353604E0,1.765317090E0,3.001081070E1
8.871005250E0,2.624878256E1,-1.411103174E1,4.761767190E0,3.017936761E1
8.880948250E0,1.815803236E1,-8.043091882E0,1.749902543E1,2.646925306E1
8.890891250E0,1.119474814E1,-3.953679063E0,1.682069930E1,2.058858638E1
8.900834250E0,6.730131767E0,-2.187462964E0,1.295121079E1,1.475850699E1
8.910777250E0,1.467674518E0,-1.196052639E0,7.773629966E0,8.000870781E0
8.920720250E0,-2.093716602E0,-6.793236673E-1,3.603408626E0,4.222520998E0
8.930663250E0,-4.818432557E0,-5.628553176E-1,6.119701749E-1,4.889642718E0
8.940606250E0,-7.295860991E0,-7.020327911E-1,-1.599574839E0,7.502071535E0
8.950550250E0,-8.397785153E0,-8.834806636E-1,-3.273581225E0,9.056471035E0
8.960493250E0,-8.769068145E0,-7.983612835E-1,-3.884446276E0,9.624077085E0
8.970436250E0,-9.330597314E0,-7.221504289E-1,-4.265337412E0,1.028468039E1
8.980379250E0,-9.520836475E0,-6.548586246E-1,-4.467572136E0,1.053728465E1
8.990322250E0,-9.762199597E0,-7.326879886E-1,-4.463428214E0,1.075916187E1
9.000265250E0,-9.913136698E0,-8.238642070E-1,-4.379670943E0,1.086878783E1
9.010208250E0,-9.885855929E0,-8.469326422E-1,-4.398824083E0,1.085343704E1
9.020151250E0,-9.820184680E0,-8.794709355E-1,-4.395541456E0,1.079491922E1
9.030094250E0,-9.912899301E0,-9.358840681E-1,-4.220872553E0,1.081467598E1
9.040037250E0,-1.030285947E1,-1.022850584E0,-3.818608674E0,1.103525753E1
9.049980250E0,-1.095834170E1,-1.159058768E0,-3.270898522E0,1.149467038E1
9.059923250E0,-1.146804583E1,-1.175166093E0,-3.051358379E0,1.192509448E1
9.069866250E0,-1.213717546E1,-1.146769163E0,-2.809513738E0,1.251077436E1
9.079809250E0,-1.279839498E1,-1.102994860E0,-2.470602687E0,1.308126100E1
9.089752250E0,-1.312135541E1,-1.048740812E0,-2.200786722E0,1.334590901E1
9.099696250E0,-1.342064865E1,-9.563150436E-1,-1.844963769E0,1.358058320E1
9.109639250E0,-1.372594347E1,-8.235877068E-1,-1.486789943E0,1.383077602E1
9.119582625E0,-1.388884690E1,-6.188760290E-1,-1.039158980E0,1.394141052E1
9.129525625E0,-1.397465128E1,-3.704690953E-1,-5.049124803E-1,1.398867622E1
9.139468625E0,-1.391225447E1,-1.210847265E-1,-6.191616654E-2,1.391291916E1
9.149411625E0,-1.359366074E1,2.355574214E-1,3.232814437E-1,1.359954450E1
9.159354625E0,-1.350960585E1,5.134226276E-1,7.405850919E-1,1.353962774E1
9.169297625E0,-1.343564793E1,7.867402348E-1,1.009857413E0,1.349649612E1
9.179240625E0,-1.314321581E1,1.165595078E0,8.724969614E-1,1.322361466E1
9.189183625E0,-1.339989688E1,1.414253186E0,-2.870128826E-1,1.347737826E1
9.199126625E0,-1.405615094E1,1.340874723E0,-1.392919035E0,1.418850055E1
9.209069625E0,-1.601981436E1,7.920109150E-1,-9.376805520E-1,1.606676626E1
9.219012625E0,-1.665852794E1,8.872310677E-1,-5.542189801E-1,1.669134179E1
9.228955625E0,-1.673624680E1,1.373978734E0,-1.625822990E0,1.687107213E1
9.238898625E0,-1.566642385E1,1.684620544E0,-2.710354024E0,1.598814566E1
9.248842625E0,-1.462845419E1,1.762042065E0,-3.919343044E0,1.524656401E1
9.258785625E0,-1.385900622E1,1.672295783E0,-4.256295277E0,1.459399452E1
9.268728625E0,-1.261872290E1,1.813263381E0,-4.421713593E0,1.349339256E1
9.278671625E0,-1.150971776E1,2.031132098E0,-4.703262874E0,1.259840396E1
9.288614625E0,-1.068909496E1,2.175275905E0,-4.921884420E0,1.196718524E1
9.298557625E0,-1.018763307E1,2.185837730E0,-4.569304333E0,1.137735893E1
9.308500625E0,-9.915233510E0,2.186510014E0,-4.000917841E0,1.091329580E1
9.318443625E0,-9.615338005E0,2.209337398E0,-3.838023477E0,1.058613815E1
9.328386625E0,-9.108750443E0,2.225748485E0,-4.027502500E0,1.020510007E1
9.338329625E0,-8.680788052E0,2.236654420E0,-4.555074549E0,1.005521797E1
9.348272625E0,-8.278173925E0,2.228389673E0,-5.093814780E0,9.972002461E0
9.358215625E0,-7.884876752E0,2.193673876E0,-5.519196210E0,9.871424075E0
9.368158625E0,-7.248600286E0,1.907949391E0,-5.511007184E0,9.303422874E0
9.378101625E0,-5.644290957E0,1.365856951E0,-8.937194306E-1,5.875569763E0
9.388045625E0,3.279012703E0,-3.747206862E0,-5.449433665E0,7.381721401E0
9.397988625E0,5.263717325E1,-1.899595591E1,-2.755676260E1,6.237702713E1
9.407931625E0,6.626998929E1,-1.916003931E1,2.233222396E1,7.250894299E1
9.417874625E0,1.433852234E1,-1.705638653E1,7.267192327E1,7.601132795E1
9.427817625E0,1.448886010E1,-1.769441599E1,6.840737114E1,7.212896679E1
9.437760625E0,1.917896557E1,-8.006419900E0,6.175760877E1,6.516086034E1
9.447703625E0,4.685009328E0,-2.530794802E0,4.014194471E1,4.049357924E1
9.457646625E0,-6.419090885E-1,-1.782077988E0,2.072772928E1,2.081409643E1
9.467589625E0,-1.486791989E0,-8.254631281E-2,6.527596496E0,6.695287920E0
9.477532625E0,-3.709857187E0,1.013294844E0,-8.032390308E-1,3.928740222E0
9.487475625E0,-6.138795247E0,1.826648389E0,-4.016926056E0,7.560234544E0
9.497418625E0,-7.713572629E0,1.995288666E0,-4.714866089E0,9.257988000E0
9.507361625E0,-8.733332886E0,2.162024214E0,-4.979234496E0,1.028290952E1
9.517304625E0,-9.609183810E0,2.504113080E0,-5.947914062E0,1.157517505E1
9.527247625E0,-1.033878944E1,2.614803504E0,-6.166260788E0,1.231870677E1
9.537191625E0,-1.101459542E1,2.371178971E0,-5.564868811E0,1.256628692E1
9.547134625E0,-1.144890204E1,2.449681788E0,-5.124289883E0,1.278032259E1
9.557077625E0,-1.164322373E1,3.444977149E0,-5.040379999E0,1.314678504E1
9.567020625E0,-1.206702875E1,4.242682082E0,-4.778097879E0,1.365444080E1
9.576963625E0,-1.289206620E1,4.373694504E0,-4.516281196E0,1.434333889E1
9.586906625E0,-1.347684039E1,4.323640291E0,-4.151509080E0,1.474971593E1
9.596849625E0,-1.435266910E1,4.227242802E0,-3.420884866E0,1.534832711E1
9.606792625E0,-1.549902859E1,4.389511807E0,-2.286466557E0,1.627008391E1
9.616735625E0,-1.597967556E1,4.705500019E0,-1.594852920E0,1.673425580E1
9.626678625E0,-1.559143682E1,5.153228922E0,-1.606204997E0,1.649935044E1
9.636621625E0,-1.591110643E1,5.583165334E0,-1.332938004E0,1.691483866E1
9.646564625E0,-1.626452501E1,5.844226556E0,-1.133436561E0,1.731977010E1
9.656507625E0,-1.597884409E1,5.688698806E0,-1.060440506E0,1.699438986E1
9.666450625E0,-1.555820124E1,5.706453291E0,-1.086669946E0,1.660729016E1
9.676393625E0,-1.507937977E1,5.955768042E0,-1.323165553E0,1.626682619E1
9.686337625E0,-1.448968807E1,6.282112842E0,-1.495544979E0,1.586356381E1
9.696280625E0,-1.418211634E1,6.461546348E0,-1.745886500E0,1.568222321E1
9.706223625E0,-1.377762350E1,6.528065443E0,-1.923802362E0,1.536683322E1
9.716166625E0,-1.318947547E1,6.361511598E0,-2.324978805E0,1.482688839E1
9.726109625E0,-1.242519410E1,6.205942333E0,-2.769295712E0,1.416220913E1
9.736052625E0,-1.178114551E1,6.135097468E0,-3.217005905E0,1.366689202E1
9.745995625E0,-1.110832980E1,6.084186346E0,-4.757608066E0,1.352949182E1
9.755938625E0,-1.029309462E1,6.144373491E0,-7.930614842E0,1.437343989E1
9.765881625E0,-1.048181233E1,6.460650555E0,-1.381268341E1,1.850401628E1
9.775824625E0,-1.283157208E1,6.430416357E0,-2.182646086E1,2.612267004E1
9.785767625E0,-1.358457885E1,6.147350893E0,-1.811663174E1,2.346365383E1
9.795710625E0,-1.203089413E1,6.137743918E0,-9.248113566E0,1.636893150E1
9.805653625E0,-1.036291388E1,6.148545479E0,-5.532275262E0,1.325898432E1
9.815596625E0,-9.497256408E0,5.950421932E0,-3.873983853E0,1.185804163E1
9.825539625E0,-9.029707782E0,5.809205242E0,-3.013453803E0,1.115183357E1
9.835483625E0,-8.836248559E0,5.651340945E0,-2.673649882E0,1.082429429E1
9.845426625E0,-8.836636814E0,5.433235708E0,-2.561641204E0,1.068495232E1
9.855369625E0,-8.796952347E0,5.264789119E0,-2.547125491E0,1.056372204E1
9.865312625E0,-8.701149811E0,5.097702593E0,-2.612832992E0,1.041746015E1
9.875255625E0,-8.545132064E0,4.955479597E0,-2.796263948E0,1.026621411E1
9.885198625E0,-8.348374427E0,4.911239564E0,-3.065103136E0,1.015925622E1
9.895141625E0,-8.157176907E0,4.833786761E0,-3.325685471E0,1.004814477E1
9.905084625E0,-8.046924148E0,4.729068391E0,-3.470839968E0,9.958102538E0
9.915027625E0,-7.998402198E0,4.594610497E0,-3.526550193E0,9.875294406E0
9.924970625E0,-7.950409421E0,4.464445045E0,-3.616075157E0,9.808989707E0
9.934913625E0,-8.232279714E0,4.276251240E0,-3.430087799E0,9.890513448E0
9.944856625E0,-7.534813891E0,9.493127105E-1,-9.173278561E-1,7.649582040E0
9.954799625E0,1.502448494E0,-1.688065431E1,4.330071936E0,1.749180849E1
9.964743625E0,2.456077093E1,-3.546777875E1,1.869118734E1,4.701654264E1
9.974686625E0,6.005019841E1,-3.069039072E1,6.904445569E1,9.651457544E1
9.984629625E0,7.101083689E1,-2.196798453E1,7.483607602E1,1.054778156E2
9.994572625E0,6.944636055E1,-1.850375835E1,6.405215910E1,9.626975201E1
1.000451562E1,6.057758919E1,-1.406203675E1,2.835977944E1,6.834955947E1
1.001445862E1,3.009510675E1,-6.867678160E0,1.059659435E1,3.263691568E1
1.002440162E1,1.024519891E1,-5.246154043E0,1.199811668E0,1.157263068E1
1.003434463E1,3.189071417E-3,-3.354183046E0,-1.551191468E0,3.695503896E0
1.004428763E1,-4.602794845E0,-8.693792260E-1,-9.150214219E-1,4.772714618E0
1.005423062E1,-7.124509506E0,3.177673732E-1,1.016422812E0,7.203660676E0
1.006417362E1,-8.562100684E0,1.432303395E0,1.989539099E0,8.906139847E0
1.007411662E1,-9.052583844E0,2.325711315E0,2.330412768E0,9.632706320E0
1.008405963E1,-9.338192847E0,2.321180453E0,3.233640356E0,1.015116517E1
1.009400362E1,-9.543599685E0,2.151520422E0,3.931752589E0,1.054362431E1
1.010394662E1,-1.178146594E1,3.002533835E0,-8.737494349E-3,1.215805188E1
1.011388963E1,-1.769660753E1,2.967559884E0,-3.631958826E0,1.830757916E1
1.012383675E1,-1.694492924E1,1.495893473E0,4.202333663E0,1.752221255E1
1.013377975E1,-1.343473576E1,3.064315955E-1,7.603597028E0,1.544023034E1
1.014372275E1,-9.398825549E0,-4.616762674E-1,7.867392408E0,1.226568098E1
1.015366575E1,-6.019637178E0,-7.967833393E-1,8.005552173E0,1.004787346E1
1.016360875E1,-4.474330640E0,-8.230903280E-1,7.698808994E0,8.942526058E0
1.017355175E1,-3.514592344E0,-1.230638043E0,6.675462055E0,7.643861785E0
1.018349475E1,-2.770399959E0,-1.786285498E0,6.172774587E0,6.997790931E0
1.019343775E1,-2.292093333E0,-2.141934496E0,5.814409264E0,6.606733711E0
1.020338075E1,-2.233106914E0,-2.030338339E0,5.344743361E0,6.138022634E0
1.021332375E1,-2.637076718E0,-1.424943358E0,5.092058276E0,5.908781150E0
1.022326675E1,-3.424779696E0,-4.432699634E-1,5.322501723E0,6.344653562E0
1.023321075E1,-4.772794454E0,5.810033208E-1,6.158526092E0,7.813102801E0
1.024315375E1,-6.646154641E0,1.609299928E0,6.864591415E0,9.689367010E0
1.025309675E1,-8.699655263E0,2.417993095E0,7.127391599E0,1.150349526E1
1.026303975E1,-1.071052617E1,2.750258347E0,6.396058702E0,1.277453948E1
1.027298275E1,-1.234356580E1,2.951309595E0,5.478808907E0,1.382357378E1
1.028292575E1,-1.339853331E1,3.069750795E0,4.181016761E0,1.436749686E1
1.029286875E1,-1.397331344E1,3.257166629E0,3.090465142E0,1.467697509E1
1.030281175E1,-1.411321158E1,3.673835708E0,2.815895097E0,1.485291470E1
1.031275475E1,-1.388512105E1,3.831314089E0,2.531874783E0,1.462483997E1
1.032269775E1,-1.367545393E1,3.732616889E0,1.933751253E0,1.430698651E1
1.033264075E1,-1.340979154E1,3.527483116E0,1.730292853E0,1.397353068E1
1.034258375E1,-1.327535586E1,3.134668922E0,1.526737828E0,1.372560203E1
1.035252675E1,-1.396941685E1,2.522637936E0,1.680397100E0,1.429447599E1
1.036246975E1,-1.360166207E1,2.589265497E0,1.042412078E0,1.388510461E1
1.037241375E1,-1.267764529E1,3.089136654E0,-3.034471035E-2,1.304861588E1
1.038235675E1,-1.196467675E1,3.462268827E0,-1.096350304E0,1.250371061E1
1.039229975E1,-1.140519294E1,3.616434176E0,-1.683468935E0,1.208267726E1
1.040224275E1,-1.086210705E1,3.622070015E0,-2.215567313E0,1.166248256E1
1.041218575E1,-1.036799511E1,3.833331671E0,-2.673777936E0,1.137272363E1
1.042212875E1,-1.004478208E1,4.063982401E0,-3.165936908E0,1.128878897E1
1.043207175E1,-9.865607021E0,4.122296975E0,-3.537259076E0,1.126213728E1
1.044201475E1,-9.524617869E0,3.946001669E0,-3.750646487E0,1.097071665E1
1.045195775E1,-9.068775954E0,3.678682757E0,-3.837249305E0,1.051189262E1
1.046190075E1,-8.695500231E0,3.436188199E0,-3.887965130E0,1.012597583E1
1.047184375E1,-8.487660366E0,3.235905860E0,-3.852821610E0,9.866899188E0
1.048178675E1,-8.378273579E0,3.179887780E0,-3.668726703E0,9.683321232E0
1.049172975E1,-8.468320701E0,3.146109292E0,-3.427163314E0,9.662086087E0
1.050167275E1,-8.626641081E0,3.019082333E0,-2.984728187E0,9.614696918E0
1.051161675E1,-9.113179709E0,2.528603558E0,-1.293587705E0,9.545535581E0
1.052155975E1,-9.741819127E0,1.509812477E-1,3.837826133E0,1.047161614E1
1.053150275E1,-1.770159169E0,-1.438586725E1,4.002190780E0,1.503676065E1
1.054144575E1,3.952421678E1,-2.846239574E1,1.061257713E1,4.984875602E1
1.055138875E1,6.974774008E1,-1.585528424E1,2.021526059E1,7.432895832E1
1.056133175E1,6.906066885E1,-1.731220806E0,2.910533452E1,7.496328171E1
1.057127475E1,6.872733078E1,-5.042884362E0,3.330614031E1,7.653872001E1
1.058121775E1,5.758163961E1,-1.068076619E1,1.982810007E1,6.182942292E1
1.059116075E1,2.667357576E1,-7.679858168E0,8.263937125E0,2.896122446E1
1.060110375E1,1.016475993E1,-5.747356319E0,4.194684920E0,1.240765210E1
1.061104675E1,2.188264909E0,-3.375844349E0,2.143154372E0,4.558282466E0
1.062098975E1,-2.907549033E0,-4.633283982E-1,6.282318664E-1,3.010513222E0
1.063093275E1,-6.281407083E0,1.488160676E0,3.295961443E-1,6.463693275E0
1.064087675E1,-7.950689503E0,2.216643493E0,7.303523183E-1,8.286156314E0
1.065081975E1,-8.250534722E0,2.045414946E0,2.149055528E0,8.767752571E0
1.066076275E1,-8.287650508E0,1.646465123E0,3.345880877E0,9.087954510E0
1.067070575E1,-8.327751882E0,1.574777674E0,4.247580003E0,9.480153586E0
1.068064875E1,-8.170131998E0,1.364000314E0,4.905022804E0,9.626567531E0
1.069059175E1,-7.709228733E0,1.131496747E0,5.368003585E0,9.461921318E0
1.070053475E1,-7.363026788E0,1.060938396E0,5.998780160E0,9.556417591E0
1.071047775E1,-7.143635749E0,9.516016030E-1,6.781030610E0,9.895425886E0
1.072042075E1,-6.922209293E0,6.525141835E-1,7.220762277E0,1.002407922E1
1.073036375E1,-6.860138760E0,4.449049911E-1,7.468362039E0,1.015065889E1
1.074030675E1,-7.314912390E0,3.510612729E-1,7.716838299E0,1.063864562E1
1.075024975E1,-8.931514320E0,2.658427826E-1,8.319262310E0,1.220871598E1
1.076019275E1,-1.028255326E1,-1.254359320E-1,9.101287057E0,1.373244559E1
1.077013575E1,-1.044558649E1,-5.493965255E-1,9.546502828E0,1.416149109E1
1.078007975E1,-1.000768267E1,-6.839746888E-1,1.036271858E1,1.442246408E1
1.079002275E1,-9.176866413E0,-6.310549021E-1,1.032126183E1,1.382539522E1
1.079996575E1,-7.980989190E0,-4.577115628E-1,9.168318368E0,1.216403510E1
1.080990875E1,-6.858823721E0,-8.340875885E-2,7.956273009E0,1.050488934E1
1.081985175E1,-6.386455235E0,5.175604463E-1,7.397742877E0,9.786791045E0
1.082979475E1,-7.016214979E0,1.033758126E0,7.393822319E0,1.024522020E1
1.083973775E1,-8.556055248E0,1.328831213E0,7.425288525E0,1.140643606E1
1.084968075E1,-1.031212146E1,1.552509138E0,7.060130492E0,1.259347355E1
1.085962375E1,-1.174471853E1,1.643564612E0,6.071807206E0,1.332315881E1
1.086956675E1,-1.277106275E1,1.886315278E0,4.904789500E0,1.380996702E1
1.087950975E1,-1.328102649E1,2.176214090E0,3.839735834E0,1.399518288E1
1.088945275E1,-1.345615294E1,2.268261982E0,2.957666688E0,1.396283842E1
1.089939575E1,-1.347640419E1,2.004375093E0,2.452408783E0,1.384360135E1
1.090933975E1,-1.346195572E1,1.563722636E0,1.823488115E0,1.367459649E1
1.091928275E1,-1.300710198E1,1.428348923E0,1.104616366E0,1.313183384E1
1.092922575E1,-1.247244077E1,1.393389151E0,4.240529430E-1,1.255719447E1
1.093916875E1,-1.194859457E1,1.505905222E0,-1.839887801E-1,1.204452218E1
1.094911175E1,-1.146344056E1,1.599873778E0,-7.259777239E-1,1.159728887E1
1.095905475E1,-1.097622482E1,1.635285247E0,-1.200268482E0,1.116209271E1
1.096899775E1,-1.054258362E1,1.654602839E0,-1.564408807E0,1.078569213E1
1.097894075E1,-1.022091659E1,1.721735892E0,-1.900386018E0,1.053769317E1
1.098888375E1,-9.996645463E0,1.813381788E0,-2.236250669E0,1.040298472E1
1.099882675E1,-9.743318937E0,1.939647878E0,-2.590291099E0,1.026665017E1
1.100876975E1,-9.447577879E0,2.052886518E0,-3.058246691E0,1.014021418E1
1.101871275E1,-9.181639495E0,2.164319977E0,-3.518009457E0,1.006792805E1
1.102865575E1,-8.980490599E0,2.155412036E0,-3.810540394E0,9.990757255E0
1.103859875E1,-8.778726575E0,1.989093542E0,-3.962357501E0,9.834775563E0
1.104854275E1,-8.611263489E0,1.780467518E0,-4.012379261E0,9.665563139E0
1.105848575E1,-8.571408282E0,1.585668114E0,-3.871232738E0,9.537810347E0
1.106842875E1,-8.790181856E0,1.378918023E0,-3.182196553E0,9.449607763E0
1.107837175E1,-8.555331362E0,-3.013494149E-2,7.720078826E0,1.152363744E1
1.108831475E1,2.452778327E0,-8.355824949E0,1.678587445E1,1.891035466E1
1.109825775E1,4.158241798E1,-1.232133936E1,3.281691079E1,5.438623468E1
1.110820075E1,6.494954766E1,-5.892626299E0,4.113408623E1,7.710499229E1
1.111814375E1,6.927644046E1,-2.440552384E0,2.191438427E1,7.270090603E1
1.112808637E1,6.869450217E1,-4.938418007E0,1.246000374E1,6.998981565E1
1.113802937E1,6.248667236E1,-4.864719116E0,4.977782047E0,6.287311054E1
1.114797237E1,3.419593918E1,-1.898523679E0,8.765677929E-2,3.424871285E1
1.115791537E1,1.783128294E1,-2.421921693E0,2.743207190E0,1.820289926E1
1.116785838E1,8.184351257E0,-1.915989313E0,2.391875191E-1,8.409032716E0
1.117780237E1,-2.166328495E0,8.424068972E-1,-1.387629410E1,1.406961856E1
1.118774538E1,-1.274352704E1,-5.649226738E-1,-2.314398823E1,2.642651719E1
1.119768838E1,-1.135750772E1,-3.156929565E0,-7.531294452E0,1.398855182E1
1.120763138E1,-7.838344025E0,-2.714998760E0,-2.593976891E-1,8.299285661E0
1.121757437E1,-7.146787398E0,-1.397884052E0,1.071364128E0,7.360602627E0
1.122751737E1,-6.762171586E0,-3.953156322E-1,8.543741012E-1,6.827385598E0
1.123746037E1,-6.347830868E0,-1.131827261E-1,2.658917530E-1,6.354405203E0
1.124740338E1,-6.279232503E0,-3.562533081E-2,9.917579412E-2,6.280116705E0
1.125734638E1,-6.577522947E0,4.118807028E-2,2.591999070E-1,6.582756958E0
1.126728937E1,-7.198232955E0,1.092888460E-1,4.806879044E-1,7.215092695E0
1.127723237E1,-7.971502082E0,1.228125421E-1,6.044806226E-1,7.995331462E0
1.128717537E1,-8.484546139E0,-7.524982821E-2,6.197509186E-1,8.507483584E0
1.129711838E1,-8.749254270E0,-3.627755848E-1,6.297778702E-1,8.779389305E0
1.130706237E1,-9.126860440E0,-5.722148826E-1,6.007685177E-1,9.164493121E0
1.131700537E1,-9.508074342E0,-7.330845029E-1,2.420490734E-1,9.539364671E0
1.132694838E1,-9.865522821E0,-9.102775759E-1,-1.899385413E-1,9.909249338E0
1.133689138E1,-1.020356088E1,-1.059084536E0,-8.195738125E-1,1.029106486E1
1.134683437E1,-1.045079169E1,-9.529844695E-1,-1.457024399E0,1.059481696E1
1.135677737E1,-1.075110936E1,-5.628153007E-1,-1.913615928E0,1.093457998E1
1.136672037E1,-1.115983207E1,-1.482757502E-1,-2.337706293E0,1.140301312E1
1.137666338E1,-1.171626715E1,1.620579207E-1,-2.590003123E0,1.200022062E1
1.138660638E1,-1.231251474E1,3.691350530E-1,-2.517318432E0,1.257263585E1
1.139654938E1,-1.263563656E1,6.890844244E-1,-2.077222191E0,1.282376702E1
1.140649237E1,-1.280494503E1,9.502537467E-1,-1.560575957E0,1.293464327E1
1.141643537E1,-1.274740141E1,1.241487844E0,-1.640931610E0,1.291240455E1
1.142637837E1,-1.241679633E1,1.473381108E0,-2.187654168E0,1.269383763E1
1.143632138E1,-1.206727316E1,1.582287692E0,-2.818792685E0,1.249273021E1
1.144626537E1,-1.183180813E1,1.665839580E0,-3.255332065E0,1.238401760E1
1.145620837E1,-1.155461035E1,1.713230093E0,-3.710872849E0,1.225621291E1
1.146615138E1,-1.125651344E1,1.929051700E0,-4.225728958E0,1.217731993E1
1.147609438E1,-1.085594760E1,2.208640556E0,-4.574212486E0,1.198553758E1
1.148603737E1,-1.047715795E1,2.451309361E0,-4.852438209E0,1.180363981E1
1.149598037E1,-1.005860139E1,2.624661909E0,-5.243433918E0,1.164293397E1
1.150592337E1,-9.420363768E0,2.797789194E0,-5.843977464E0,1.143341377E1
1.151586638E1,-8.854583089E0,2.959100425E0,-6.336157486E0,1.128303189E1
1.152580938E1,-8.581801708E0,3.042919385E0,-6.604300856E0,1.124826514E1
1.153575237E1,-8.479595302E0,3.029619600E0,-6.741139736E0,1.124833749E1
1.154569537E1,-8.117368478E0,3.127964797E0,-7.013698922E0,1.117442649E1
1.155563837E1,-7.524849651E0,3.370347966E0,-7.254904754E0,1.098254300E1
1.156558138E1,-7.311009958E0,3.534603855E0,-7.663435678E0,1.116568571E1
1.157552537E1,-6.979931252E0,3.808182504E0,-7.780476471E0,1.112463520E1
1.158546837E1,-6.591876107E0,4.155872857E0,-7.858245023E0,1.106689318E1
1.159541138E1,-6.268148521E0,4.405681697E0,-7.992601760E0,1.107164848E1
1.160535438E1,-5.889854718E0,4.511890815E0,-7.924885740E0,1.085593669E1
1.161529737E1,-5.377458533E0,4.509367741E0,-7.740284464E0,1.044813195E1
1.162524037E1,-4.923783596E0,4.352618507E0,-7.485827088E0,9.961251927E0
1.163518337E1,-5.045026782E0,4.068531243E0,-6.820436751E0,9.408698059E0
1.164512638E1,-6.112625449E0,3.588162012E0,-3.831180480E0,8.057111168E0
1.165506938E1,-8.418617029E0,2.005088600E0,6.570909162E0,1.086601768E1
1.166501238E1,-1.021801052E1,-1.236789314E0,1.339896600E1,1.689584792E1
1.167495537E1,2.806955874E-1,-1.827902997E1,5.835640504E0,1.919000851E1
1.168489837E1,2.475183922E1,-3.462082593E1,6.488903716E0,4.305067949E1
1.169484137E1,4.195578375E1,-2.286115140E1,3.310632691E1,5.812872711E1
1.170478537E1,7.146713021E1,3.459380887E0,6.748385722E1,9.835440510E1
1.171472837E1,7.026323061E1,5.709582721E0,6.594819596E1,9.653333860E1
1.172467137E1,5.617588477E1,-6.964447825E0,4.169953537E1,7.030707513E1
1.173461438E1,2.460802345E1,-9.402661908E0,2.444240925E1,3.593600199E1
1.174455738E1,1.060756138E1,-8.464471478E0,8.441306564E0,1.598196773E1
1.175450037E1,3.946620305E0,-6.385120316E0,6.234242857E-2,7.506627729E0
1.176444337E1,-9.098776263E-1,-4.481875010E0,-1.178471231E0,4.722697888E0
1.177438637E1,-4.281042448E0,-2.566938781E0,-1.102223539E0,5.111887702E0
1.178432938E1,-6.196841142E0,-1.460955336E0,-2.585673552E0,6.871749293E0
1.179427238E1,-6.983462970E0,-7.071879888E-1,-3.191630743E0,7.710731269E0
1.180421537E1,-7.331405046E0,-1.076253131E-1,-2.908198074E0,7.887883062E0
1.181415837E1,-7.961464167E0,4.169506225E-1,-2.314464780E0,8.301536408E0
1.182410137E1,-8.550892156E0,3.611369026E-1,-2.109104134E0,8.814561633E0
1.183404537E1,-8.815137187E0,2.424901727E-1,-2.079936469E0,9.060440432E0
1.184398837E1,-9.249666587E0,4.695679620E-1,-2.312650974E0,9.545951003E0
1.185393137E1,-9.813460382E0,5.007587644E-1,-2.283113179E0,1.008798145E1
1.186387438E1,-1.000672606E1,4.627539092E-1,-2.346521555E0,1.028857964E1
1.187381738E1,-1.000856443E1,4.004532883E-1,-2.407759591E0,1.030189453E1
1.188376037E1,-1.005772314E1,3.535951638E-1,-2.214410880E0,1.030468048E1
1.189370337E1,-1.024220396E1,2.368730450E-1,-2.044070963E0,1.044686924E1
1.190364637E1,-1.037213260E1,8.584706604E-2,-2.019120748E0,1.056718283E1
1.191358937E1,-1.043095793E1,6.462576628E-2,-2.120364849E0,1.064448246E1
1.192353238E1,-1.051085779E1,2.070025438E-1,-2.238624054E0,1.074860080E1
1.193347538E1,-1.078009752E1,4.407373881E-1,-2.565854123E0,1.109001169E1
1.194341837E1,-1.107585436E1,5.528314358E-1,-2.892823990E0,1.146074182E1
1.195336137E1,-1.150667604E1,5.433130823E-1,-2.942639051E0,1.188940315E1
1.196330538E1,-1.190494276E1,4.543473673E-1,-2.529072797E0,1.217909286E1
1.197324837E1,-1.224971097E1,6.428405499E-1,-2.299841186E0,1.248030177E1
1.198319137E1,-1.228638938E1,9.484528774E-1,-1.889356415E0,1.246694007E1
1.199313437E1,-1.191812590E1,1.421221313E0,-1.736795542E0,1.212757410E1
1.200307738E1,-1.174802805E1,1.993705387E0,-1.742759409E0,1.204276690E1
1.201302038E1,-1.190117014E1,2.357478360E0,-1.731855229E0,1.225540197E1
1.202296337E1,-1.199322402E1,2.625573198E0,-1.487730467E0,1.236706914E1
1.203290637E1,-1.226382147E1,2.948852595E0,-1.215772082E0,1.267182506E1
1.204284937E1,-1.262180555E1,3.178541459E0,-1.068560826E0,1.305966782E1
1.205279238E1,-1.350222198E1,3.219438639E0,-9.391256914E-1,1.391246710E1
1.206273538E1,-1.410240359E1,3.192026600E0,-1.047016468E0,1.449700191E1
1.207267837E1,-1.402715577E1,3.191487779E0,-1.335693797E0,1.444751782E1
1.208262137E1,-1.327464367E1,3.293180507E0,-1.869675272E0,1.380423443E1
1.209256437E1,-1.264879045E1,3.400316700E0,-2.533520482E0,1.334064390E1
1.210250837E1,-1.201039847E1,3.488690641E0,-2.908189303E0,1.284049060E1
1.211245137E1,-1.147941749E1,3.617850080E0,-3.247909609E0,1.246654651E1
1.212239154E1,-1.104928929E1,3.800346650E0,-3.583979791E0,1.222187955E1
1.213233454E1,-1.078539158E1,3.876402554E0,-3.890784365E0,1.210327936E1
1.214227754E1,-1.039937127E1,3.966493529E0,-4.155710597E0,1.188065336E1
1.215222054E1,-9.969571685E0,4.146455331E0,-4.439262841E0,1.167443814E1
1.216216354E1,-9.464296238E0,4.267747926E0,-4.653303386E0,1.137716169E1
1.217210654E1,-8.931663424E0,4.226760699E0,-4.905913335E0,1.103213956E1
1.218204954E1,-8.445621809E0,4.153947369E0,-5.114551930E0,1.071179014E1
1.219199254E1,-8.081939614E0,4.121752599E0,-5.186114833E0,1.044999423E1
1.220193554E1,-7.798464260E0,4.144298878E0,-5.263575237E0,1.028087945E1
1.221187854E1,-7.578421256E0,4.127493981E0,-5.144206669E0,1.004646891E1
1.222182154E1,-7.527703677E0,3.937241663E0,-4.549622312E0,9.636765938E0
1.223176554E1,-7.735072256E0,3.605852762E0,-3.880919820E0,9.375236296E0
1.224170854E1,-8.211447254E0,2.396697390E0,-2.206751466E0,8.834125674E0
1.225165154E1,-4.322524935E0,-6.008056183E0,-4.755014241E-2,7.401568883E0
1.226159454E1,2.567448308E1,-2.855344156E1,2.341315194E0,3.847024647E1
1.227153754E1,6.559475750E1,-2.283654865E1,2.433046080E1,7.359450719E1
1.228148054E1,7.203176075E1,-1.149355372E1,6.381305008E1,9.691636443E1
1.229142354E1,7.049583753E1,-2.422918234E1,7.399983530E1,1.050366222E2
1.230136654E1,5.828352535E1,-2.558515399E1,5.954772612E1,8.716364562E1
1.231130954E1,2.693992345E1,-1.673146962E1,2.612425558E1,4.108744676E1
1.232125254E1,1.087263438E1,-1.218988928E1,1.080002366E1,1.958183061E1
1.233119554E1,2.103313052E0,-8.156555933E0,3.768235496E0,9.227834482E0
1.234113854E1,-3.309514119E0,-4.967928904E0,4.104464722E-1,5.983449474E0
1.235108154E1,-5.994722192E0,-2.692824072E0,-1.285106903E0,6.696229939E0
1.236102554E1,-7.709430462E0,-1.327820814E0,-2.092619810E0,8.097992580E0
1.237096854E1,-8.579920074E0,-5.819780517E-1,-2.196549683E0,8.875728558E0
1.238091154E1,-8.425594511E0,1.559222911E-1,-1.778290308E0,8.612622774E0
1.239085454E1,-8.387885233E0,7.171373186E-1,-1.119207435E0,8.492557323E0
1.240079754E1,-8.395189574E0,1.086522304E0,-8.567229277E-1,8.508449499E0
1.241074054E1,-8.534320562E0,1.427105512E0,-6.791441578E-1,8.679429382E0
1.242068354E1,-8.718338286E0,1.631290867E0,-4.514120650E-1,8.881120719E0
1.243062654E1,-8.880020816E0,1.607191714E0,-1.463370967E-1,9.025477796E0
1.244056954E1,-9.058570223E0,1.514587021E0,5.336053887E-2,9.184471443E0
1.245051254E1,-9.279397924E0,1.406671979E0,-2.389640093E-2,9.385442074E0
1.246045554E1,-9.466383694E0,1.324135021E0,-8.560323715E-2,9.558926808E0
1.247039854E1,-9.668804945E0,1.248968187E0,-7.636463642E-2,9.749438043E0
1.248034154E1,-9.858892078E0,1.171997779E0,-7.886139750E-2,9.928622811E0
1.249028554E1,-1.009011437E1,1.177509657E0,-9.684567869E-2,1.015905095E1
1.250022854E1,-1.037786404E1,1.204447487E0,-3.522532278E-1,1.045346058E1
1.251017154E1,-1.072315382E1,1.280655710E0,-8.580087304E-1,1.083338755E1
1.252011454E1,-1.103728145E1,1.368406922E0,-9.928320748E-1,1.116601248E1
1.253005754E1,-1.136245914E1,1.385827532E0,-8.511985514E-1,1.147826358E1
1.254000054E1,-1.186211659E1,1.427405913E0,-5.655017674E-1,1.196106558E1
1.254994354E1,-1.230073728E1,1.586437315E0,-2.797777207E-1,1.240577271E1
1.255988654E1,-1.249328259E1,1.814374352E0,-2.229521401E-1,1.262631267E1
1.256982954E1,-1.259742033E1,2.078707384E0,-2.670540333E-2,1.276780077E1
1.257977254E1,-1.285987260E1,2.203775818E0,4.368560064E-1,1.305464647E1
1.258971554E1,-1.314695920E1,2.265545220E0,8.349136904E-1,1.336683628E1
1.259965854E1,-1.348461953E1,2.232443255E0,8.877523470E-1,1.369696576E1
1.260960154E1,-1.387097547E1,2.087954463E0,8.296783859E-1,1.405175721E1
1.261954554E1,-1.400216594E1,2.080694706E0,4.626185462E-1,1.416347265E1
1.262948854E1,-1.400644844E1,2.077425382E0,-1.182979435E-1,1.416016555E1
1.263943154E1,-1.374777581E1,2.101970531E0,-7.721470463E-1,1.392895656E1
1.264937454E1,-1.341864656E1,2.156060784E0,-1.299928426E0,1.365278314E1
1.265931754E1,-1.306145653E1,2.195363722E0,-1.742071484E0,1.335874551E1
1.266926054E1,-1.263208496E1,2.203259509E0,-2.181457581E0,1.300702426E1
1.267920354E1,-1.212201246E1,2.219623673E0,-2.717258709E0,1.261956458E1
1.268914654E1,-1.156228189E1,2.234595030E0,-3.294096181E0,1.222828063E1
1.269908954E1,-1.107512463E1,2.250251243E0,-3.674586782E0,1.188379587E1
1.270903254E1,-1.065979924E1,2.186882920E0,-3.875537458E0,1.155134483E1
1.271897554E1,-1.029507449E1,2.174183937E0,-4.206670543E0,1.133188914E1
1.272891854E1,-1.010987095E1,2.169631880E0,-4.419695134E0,1.124502104E1
1.273886154E1,-9.892101924E0,2.074735663E0,-4.336822547E0,1.099846527E1
1.274880554E1,-9.637643963E0,1.880247037E0,-4.042013535E0,1.061872796E1
1.275874854E1,-9.395903111E0,1.728774331E0,-3.809584666E0,1.028516365E1
1.276869154E1,-9.187132369E0,1.602095135E0,-3.803951459E0,1.007175043E1
1.277863454E1,-9.030143985E0,1.605935440E0,-3.756240810E0,9.911199425E0
1.278857754E1,-8.955852771E0,1.638880115E0,-3.630570112E0,9.801748121E0
1.279852054E1,-8.938073727E0,1.705379037E0,-3.502903175E0,9.750272317E0
1.280846354E1,-9.037621404E0,1.778010811E0,-3.051653663E0,9.703221793E0
1.281840654E1,-8.608666155E0,1.440039553E0,-2.443218422E0,9.063783048E0
1.282834954E1,-6.181898582E-1,-3.607288254E0,-2.839250923E0,4.632065743E0
1.283829254E1,5.070241379E1,-3.071430700E0,-3.237598629E0,5.089843313E1
1.284823554E1,7.260602749E1,2.484818496E1,-5.295915018E0,7.692278102E1
1.285817854E1,7.006949598E1,2.347327155E0,4.009525586E1,8.076430991E1
1.286812254E1,6.705852608E1,-3.030275775E1,7.426028900E1,1.045451748E2
1.287806554E1,4.453078526E1,-2.730522942E1,5.147675354E1,7.333772934E1
1.288800854E1,2.285403884E1,-1.820403709E1,2.154191196E1,3.630079928E1
1.289795154E1,1.116507001E1,-1.184722607E1,9.312996025E0,1.875493132E1
1.290789454E1,3.856828122E0,-7.541971468E0,3.655842656E0,9.226139079E0
1.291783754E1,-7.549813753E-1,-4.988063207E0,-3.934328288E-2,5.045029170E0
1.292778054E1,-3.511122022E0,-3.439883054E0,-2.200783506E0,5.385556732E0
1.293772354E1,-4.942822130E0,-2.256981388E0,-2.783293362E0,6.105094391E0
1.294766654E1,-5.681133678E0,-1.281934204E0,-2.653108613E0,6.399814098E0
1.295760954E1,-6.147081336E0,-6.790823966E-1,-2.261773473E0,6.585087782E0
1.296755254E1,-6.239007753E0,-2.534388647E-1,-1.929666242E0,6.535522994E0
1.297749554E1,-5.906292411E0,1.556063953E-1,-1.757759564E0,6.164269793E0
1.298743854E1,-5.789711210E0,5.684557077E-1,-1.799999557E0,6.089654850E0
1.299738254E1,-6.290439861E0,8.970426956E-1,-1.867534021E0,6.622839464E0
1.300732554E1,-7.129567348E0,1.030379678E0,-1.914459389E0,7.453694896E0
1.301726854E1,-7.847716527E0,9.480114126E-1,-2.055329339E0,8.167604240E0
1.302721154E1,-8.383605655E0,8.576824558E-1,-2.281291772E0,8.730678961E0
1.303715454E1,-8.839028910E0,8.384269899E-1,-2.512174344E0,9.227264591E0
1.304709754E1,-9.259625564E0,7.998564166E-1,-2.646279943E0,9.663500060E0
1.305704054E1,-9.576141779E0,7.260788807E-1,-2.725941239E0,9.983007441E0
1.306698354E1,-9.758120579E0,6.806375366E-1,-2.784649916E0,1.017046999E1
1.307692654E1,-1.000763121E1,6.520083994E-1,-2.803859481E0,1.041342525E1
1.308686954E1,-1.031157182E1,6.519999209E-1,-2.768132701E0,1.069654972E1
1.309681254E1,-1.055188654E1,7.220855248E-1,-2.640924770E0,1.090129353E1
1.310675554E1,-1.077165414E1,8.092932379E-1,-2.311914809E0,1.104664829E1
1.311669854E1,-1.100751094E1,8.901383033E-1,-1.865290444E0,1.119986391E1
1.312664213E1,-1.124228717E1,9.179932693E-1,-1.665504534E0,1.140200148E1
1.313658513E1,-1.140637524E1,9.546576503E-1,-1.651638447E0,1.156480337E1
1.314652812E1,-1.148218322E1,1.021368826E0,-1.579130634E0,1.163517853E1
1.315647112E1,-1.152182735E1,1.111794262E0,-1.465206993E0,1.166770858E1
1.316641412E1,-1.171179052E1,1.206016368E0,-1.311728984E0,1.184656683E1
1.317635713E1,-1.197547773E1,1.273901445E0,-1.077366149E0,1.209113764E1
1.318630013E1,-1.212828184E1,1.346852039E0,-9.120299864E-1,1.223687172E1
1.319624312E1,-1.228684313E1,1.335469264E0,-7.417999971E-1,1.238144820E1
1.320618612E1,-1.242355922E1,1.289738775E0,-4.959479678E-1,1.250016856E1
1.321612912E1,-1.251035529E1,1.284805479E0,-4.468477285E-1,1.258409263E1
1.322607213E1,-1.248080112E1,1.415999165E0,-7.595883965E-1,1.258381598E1
1.323601513E1,-1.229463396E1,1.686299864E0,-1.235447670E0,1.247108505E1
1.324595813E1,-1.199656162E1,1.915311766E0,-1.744437560E0,1.227309953E1
1.325590213E1,-1.169541831E1,1.961978102E0,-2.172094727E0,1.205612554E1
1.326584513E1,-1.133000710E1,1.943380302E0,-2.479451571E0,1.175982432E1
1.327578812E1,-1.092348294E1,1.942027110E0,-2.685294904E0,1.141511093E1
1.328573112E1,-1.053990559E1,1.923412791E0,-2.885769617E0,1.109580069E1
1.329567412E1,-1.024021006E1,1.913007963E0,-3.082181099E0,1.086376279E1
1.330561712E1,-1.004049022E1,1.904446763E0,-3.213147035E0,1.071273426E1
1.331556013E1,-9.858435996E0,1.900103743E0,-3.243013443E0,1.055065357E1
1.332550313E1,-9.729894900E0,1.899519899E0,-3.285220985E0,1.044374011E1
1.333544612E1,-9.674000781E0,1.858554160E0,-3.366289998E0,1.041020764E1
1.334538912E1,-9.715155239E0,1.728364003E0,-3.425062994E0,1.044521613E1
1.335533212E1,-9.540904704E0,1.514438063E0,-3.288780769E0,1.020482553E1
1.336527513E1,-9.401265008E0,1.367195087E0,-3.134042686E0,1.000376078E1
1.337521813E1,-9.260017912E0,1.291393245E0,-3.110344505E0,9.853419264E0
1.338516212E1,-9.158393889E0,1.243204002E0,-3.051598699E0,9.733138725E0
1.339510513E1,-8.846610410E0,1.300475871E0,-2.525642528E0,9.291535041E0
1.340504813E1,-5.745952987E0,1.484660825E0,2.914017515E0,6.611481799E0
1.341499112E1,1.355323660E1,-7.575312291E0,1.689049401E1,2.294263207E1
1.342493412E1,4.586085842E1,-1.441828070E1,4.226711290E1,6.401260802E1
1.343487712E1,6.132867574E1,-1.100725015E1,4.408876850E1,7.632945389E1
1.344482013E1,6.931935903E1,-6.759657283E0,1.182263151E1,7.064446983E1
1.345476313E1,6.906762002E1,-2.808034101E0,-1.742099083E1,7.128612847E1
1.346470612E1,5.161690896E1,-7.550151138E0,-3.949299733E1,6.542940402E1
1.347464912E1,2.194438984E1,-5.720295990E0,-3.192200145E1,3.915727529E1
1.348459212E1,1.091637389E1,-2.211202075E-1,-1.919032905E1,2.207905891E1
1.349453612E1,-3.247728930E0,5.838675209E0,-1.593666111E1,1.728048143E1
1.350447912E1,-1.939900098E1,6.387018907E0,-1.339679903E1,2.442518114E1
1.351442212E1,-1.868581374E1,-1.222028603E-1,-4.464101521E0,1.921204755E1
1.352436513E1,-1.095448020E1,-2.590757999E0,-2.101629639E0,1.145117944E1
1.353430813E1,-3.115541511E0,-2.545840858E0,5.054172412E-1,4.055040217E0
1.354425113E1,2.663248855E-1,-6.420744916E-1,1.389234412E0,1.553435177E0
1.355419412E1,1.343001940E0,3.126170360E-1,3.965935412E-1,1.434806627E0
1.356413712E1,8.339708269E-1,3.127234188E-1,-2.599017191E-1,9.278212006E-1
1.357408012E1,-7.442020333E-1,2.982288290E-2,-3.536109513E-1,8.244796999E-1
1.358402313E1,-2.667939491E0,-2.841357967E-1,1.754913139E-1,2.688760213E0
1.359396613E1,-4.414293476E0,-4.573993580E-1,9.454707974E-1,4.537523124E0
1.360390912E1,-5.873739207E0,-4.169555926E-1,1.697318358E0,6.128258631E0
1.361385313E1,-7.007167583E0,-3.076363777E-1,2.375532516E0,7.405281386E0
1.362379613E1,-7.837576286E0,-2.004758817E-1,2.989170316E0,8.390645493E0
1.363373912E1,-8.337003931E0,-9.221322209E-2,3.339099276E0,8.981298448E0
1.364368212E1,-8.624186420E0,2.765762240E-2,3.384052670E0,9.264403317E0
1.365362512E1,-8.746911875E0,7.911045235E-2,3.250218675E0,9.331594036E0
1.366356813E1,-8.806329526E0,7.687191892E-2,3.016252573E0,9.308873648E0
1.367351113E1,-8.931942921E0,9.707200248E-2,2.672465529E0,9.323684858E0
1.368345412E1,-9.090774348E0,1.176501451E-1,2.356510354E0,9.391973214E0
1.369339712E1,-9.379455478E0,1.739075956E-1,2.026248504E0,9.597401311E0
1.370334012E1,-9.678910688E0,3.615962745E-1,1.554338732E0,9.809588822E0
1.371328313E1,-1.004221632E1,6.159291054E-1,1.156812268E0,1.012737340E1
1.372322613E1,-1.054103410E1,9.522670162E-1,9.060903847E-1,1.062267444E1
1.373316913E1,-1.116491447E1,1.271968210E0,8.216951823E-1,1.126713811E1
1.374311313E1,-1.175892142E1,1.449771951E0,7.793333475E-1,1.187356021E1
1.375305613E1,-1.198323464E1,1.623130347E0,4.367624509E-1,1.210054652E1
1.376299912E1,-1.195401494E1,1.884818098E0,-9.069499254E-2,1.210203445E1
1.377294212E1,-1.217669445E1,2.036519138E0,-2.079158789E-1,1.234757170E1
1.378288512E1,-1.249458301E1,2.103385265E0,-1.273149347E-1,1.267103165E1
1.379282812E1,-1.229546894E1,2.271516396E0,-5.847765291E-1,1.251720044E1
1.380277113E1,-1.196568598E1,2.389125684E0,-1.274026722E0,1.226819899E1
1.381271413E1,-1.177943345E1,2.425321411E0,-1.977015240E0,1.218793771E1
1.382265712E1,-1.192854563E1,2.303500081E0,-2.404660420E0,1.238461567E1
1.383260012E1,-1.224007710E1,2.189235986E0,-2.726351129E0,1.272969882E1
1.384254312E1,-1.241484920E1,2.141371994E0,-3.146429427E0,1.298514432E1
1.385248613E1,-1.221885287E1,2.194365309E0,-3.520289871E0,1.290379965E1
1.386242913E1,-1.183060126E1,2.274413399E0,-3.962979645E0,1.268232196E1
1.387237312E1,-1.142798304E1,2.303218246E0,-4.466451809E0,1.248410199E1
1.388231613E1,-1.113195489E1,2.248150338E0,-5.050594500E0,1.242912323E1
1.389225913E1,-1.076845103E1,2.272276534E0,-5.683277267E0,1.238638037E1
1.390220212E1,-1.016914066E1,2.446146123E0,-6.329394012E0,1.222523134E1
1.391214512E1,-9.425312267E0,2.649484217E0,-6.631891528E0,1.182532296E1
1.392208812E1,-8.651374218E0,2.608678838E0,-6.767331169E0,1.128929813E1
1.393203113E1,-7.923578303E0,2.382040759E0,-6.910691448E0,1.078029998E1
1.394197413E1,-7.241295944E0,2.156027748E0,-6.968191212E0,1.027815700E1
1.395191712E1,-6.730433484E0,1.955605076E0,-6.870725729E0,9.814784671E0
1.396186012E1,-6.982147347E0,1.469616378E0,-5.737176316E0,9.155618273E0
1.397180312E1,-8.417411917E0,-2.365593418E-2,3.484706640E-2,8.417517289E0
1.398174613E1,-9.353281587E0,-1.545380652E0,9.442678497E0,1.338044300E1
1.399169012E1,-1.019960933E1,-2.544340462E0,1.255157816E1,1.637216581E1
1.400163312E1,-4.008648153E0,-3.791500982E0,-2.912848949E-1,5.525358505E0
1.401157613E1,5.199051330E1,-1.485558694E1,-2.654589128E0,5.413639053E1
1.402151913E1,6.733338731E1,-1.864528552E0,3.173023383E1,7.445850692E1
1.403146212E1,7.124557220E1,1.592770551E1,7.133113801E1,1.020674023E2
1.404140512E1,7.103210672E1,1.175205678E1,7.037787814E1,1.006812632E2
1.405134812E1,5.573086020E1,-3.573993623E0,4.533406639E1,7.192968639E1
1.406129112E1,2.962295344E1,-6.926497056E0,2.469603340E1,3.918405029E1
1.407123413E1,1.506224977E1,-6.497615483E0,9.699499903E0,1.905703737E1
1.408117713E1,6.034128333E0,-4.662917671E0,6.053183824E-1,7.649831128E0
1.409112012E1,-1.253209172E0,-3.119814948E0,-2.864649181E0,4.417011826E0
1.410106312E1,-4.946594753E0,-2.392376882E0,-4.317523811E0,6.988081186E0
1.411100713E1,-7.009034014E0,-1.630385426E0,-4.097476422E0,8.280943634E0
1.412095012E1,-8.364202255E0,-5.273299742E-1,-4.087409855E0,9.324423606E0
1.413089267E1,-9.190435461E0,5.016454947E-1,-3.382217814E0,9.805873215E0
1.414083567E1,-9.780866833E0,1.134957568E0,-2.768736426E0,1.022836185E1
1.415077867E1,-1.014364680E1,1.696532346E0,-2.427063735E0,1.056704456E1
1.416072167E1,-1.034322046E1,2.076124961E0,-2.362513690E0,1.081082676E1
1.417066467E1,-1.072753806E1,2.014062614E0,-2.336672651E0,1.116228293E1
1.418060767E1,-1.104206798E1,1.901529148E0,-2.417106804E0,1.146235070E1
1.419055067E1,-1.130851507E1,1.777410594E0,-2.222139584E0,1.166102937E1
1.420049367E1,-1.170309688E1,1.635397221E0,-1.526474118E0,1.191499576E1
1.421043667E1,-1.188318878E1,1.554060697E0,-9.400498438E-1,1.202118854E1
1.422037967E1,-1.185333056E1,1.706076902E0,-4.294721425E-1,1.198317946E1
1.423032267E1,-1.173116585E1,2.144109076E0,8.609330691E-2,1.192580681E1
1.424026667E1,-1.167233702E1,2.741579910E0,5.372526991E-1,1.200201451E1
1.425020967E1,-1.229914099E1,3.076792012E0,1.014834416E0,1.271870304E1
1.426015267E1,-1.453882573E1,2.631518647E0,1.506853201E0,1.485169858E1
1.427009567E1,-1.617088068E1,2.187544532E0,2.327791754E0,1.648336579E1
1.428003867E1,-1.620992605E1,2.234151519E0,2.104673699E0,1.649796312E1
1.428998167E1,-1.684824670E1,1.775720456E0,2.052037064E0,1.706538767E1
1.429992467E1,-1.711189883E1,1.844192813E0,2.473410813E0,1.738780865E1
1.430986767E1,-1.620829468E1,2.545793203E0,2.574648335E0,1.660779014E1
1.431981067E1,-1.579198228E1,2.916986147E0,2.679021134E0,1.628105238E1
1.432975367E1,-1.586080518E1,3.071781241E0,2.720650971E0,1.638300713E1
1.433969667E1,-1.606684118E1,3.181232640E0,2.596851382E0,1.658334296E1
1.434963967E1,-1.622164504E1,3.146572099E0,2.328813263E0,1.668730221E1
1.435958367E1,-1.574724640E1,3.476227008E0,2.188604925E0,1.627421012E1
1.436952667E1,-1.469240870E1,4.003143584E0,1.931012564E0,1.534994597E1
1.437946967E1,-1.390944781E1,4.145152279E0,1.520182514E0,1.459335399E1
1.438941267E1,-1.320858885E1,4.248619345E0,1.163372405E0,1.392375743E1
1.439935567E1,-1.251558387E1,4.388509302E0,6.356736177E-1,1.327791152E1
1.440929867E1,-1.183543925E1,4.476948439E0,-4.334301227E-1,1.266130132E1
1.441924167E1,-1.092834197E1,4.664236802E0,-5.125116094E0,1.294026964E1
1.442918467E1,-9.745515736E0,4.890901194E0,-1.284297766E1,1.684749437E1
1.443912767E1,-9.348711403E0,4.221943178E0,-8.958788073E0,1.361921778E1
1.444907067E1,-9.447794226E0,3.390627864E0,-3.286809965E0,1.056221060E1
1.445901367E1,-9.169183171E0,2.965968857E0,-1.650769551E0,9.777317188E0
1.446895667E1,-8.628940791E0,2.761843728E0,-1.410123736E0,9.169233823E0
1.447889967E1,-8.290204571E0,2.646742457E0,-1.522902639E0,8.834702594E0
1.448884367E1,-8.260482590E0,2.531228958E0,-1.641856055E0,8.794224466E0
1.449878667E1,-8.461539685E0,2.473927706E0,-1.671450129E0,8.972832199E0
1.450872967E1,-8.643730738E0,2.395030641E0,-1.782044220E0,9.144721671E0
1.451867267E1,-8.750841204E0,2.194584872E0,-2.174764273E0,9.280249144E0
1.452861567E1,-8.838897933E0,2.158461359E0,-2.078771119E0,9.333078885E0
1.453855867E1,-8.532848234E0,1.846834293E0,-2.083240292E0,8.975532630E0
1.454850167E1,-7.662621746E0,5.026804519E-1,-1.958428550E0,7.924891295E0
1.455844467E1,-3.764016438E-1,-1.002134878E1,-3.751517429E0,1.070714680E1
1.456838767E1,2.516582209E1,-2.770287751E1,-1.810943499E0,3.747062236E1
1.457833067E1,6.680865818E1,-2.804359009E1,2.509546371E1,7.667869360E1
1.458827367E1,6.934431494E1,-2.525388116E1,5.957165760E1,9.484289598E1
1.459821767E1,6.836933149E1,-1.841684065E1,5.483646074E1,8.955770729E1
1.460816067E1,6.513180303E1,-1.169107500E1,1.574196870E1,6.801942796E1
1.461810367E1,3.567492923E1,-8.610082936E0,1.303090015E0,3.672236576E1
1.462804667E1,1.267530290E1,-4.158678351E0,-1.185425910E0,1.339265261E1
1.463798967E1,1.600984603E0,-4.832187255E-1,-1.707948303E0,2.390342955E0
1.464793267E1,-4.636599938E0,1.584294310E0,-8.562966657E-1,4.974061864E0
1.465787567E1,-7.705065515E0,2.468927168E0,8.220530319E-1,8.132613795E0
1.466781867E1,-9.561316749E0,2.445550292E0,2.657879064E0,1.022075415E1
1.467776167E1,-1.048057506E1,1.947870086E0,3.860147002E0,1.133743297E1
1.468770467E1,-1.047356308E1,1.312094142E0,4.730598607E0,1.156700816E1
1.469764767E1,-1.006498304E1,9.314055394E-1,5.486125528E0,1.150082489E1
1.470759067E1,-9.596056811E0,6.451533430E-1,6.162140256E0,1.142245603E1
1.471753467E1,-9.150251057E0,4.498317819E-1,6.456769758E0,1.120800244E1
1.472747767E1,-8.736236029E0,1.828254765E-1,5.947701223E0,1.057025993E1
1.473742067E1,-8.051726466E0,-3.487267721E-1,5.417674513E0,9.710978662E0
1.474736367E1,-7.296643934E0,-9.880499294E-1,5.598382128E0,9.249818258E0
1.475730667E1,-6.774436120E0,-1.411416555E0,6.148743115E0,9.257004015E0
1.476724967E1,-6.554382007E0,-1.780044618E0,6.211572032E0,9.203918157E0
1.477719267E1,-6.831693226E0,-2.203035853E0,6.284483303E0,9.540447038E0
1.478713567E1,-6.495356119E0,-2.498869005E0,5.852880435E0,9.093415574E0
1.479707867E1,-5.926042551E0,-2.541593440E0,5.390106645E0,8.404220796E0
1.480702167E1,-5.831391917E0,-2.232395892E0,5.183833249E0,8.115469812E0
1.481696467E1,-6.404651771E0,-1.709048164E0,5.218885553E0,8.436656704E0
1.482690767E1,-7.833072175E0,-1.245441731E0,5.340157975E0,9.561664709E0
1.483685167E1,-1.007510808E1,-9.226298189E-1,5.281323291E0,1.141277461E1
1.484679467E1,-1.268924968E1,-7.220537306E-1,4.946821625E0,1.363852863E1
1.485673767E1,-1.558852256E1,-7.334305850E-1,5.845646260E0,1.666467930E1
1.486668067E1,-1.756305244E1,-6.475273857E-1,5.745623789E0,1.849032979E1
1.487662367E1,-1.811259014E1,-8.903128427E-1,4.346457589E0,1.864806350E1
1.488656667E1,-1.676977239E1,-7.014504084E-1,1.701712832E0,1.687048089E1
1.489650967E1,-1.570243100E1,-1.752659038E-1,1.186400056E-1,1.570385726E1
1.490645267E1,-1.408360596E1,6.223545375E-1,-7.461684519E-1,1.411708360E1
1.491639567E1,-1.328292333E1,1.312528006E0,-1.835642138E0,1.347324623E1
1.492633867E1,-1.274238684E1,1.152219280E0,-3.848062561E0,1.336052458E1
1.493628167E1,-1.244774564E1,1.289307835E0,-3.938386840E0,1.311943509E1
1.494622467E1,-1.196019076E1,1.521172740E0,-3.794727184E0,1.263962357E1
1.495616767E1,-1.207392846E1,2.105160772E0,-2.077045020E0,1.243083129E1
1.496611167E1,-1.202300623E1,2.445927730E0,-1.867141088E0,1.241053815E1
1.497605467E1,-1.309308061E1,2.409478380E0,-4.645328661E0,1.410012143E1
1.498599767E1,-1.313413742E1,1.758459476E0,-6.453694707E0,1.473933244E1
1.499594067E1,-1.226333966E1,1.667739048E0,-6.581859827E0,1.401755085E1
1.500588367E1,-1.114362593E1,1.897496762E0,-6.107683382E0,1.284852867E1
1.501582667E1,-1.036881138E1,1.924373781E0,-5.572978899E0,1.192784799E1
1.502576967E1,-9.959616215E0,1.830179669E0,-4.823472272E0,1.121647884E1
1.503571267E1,-9.612222608E0,1.857263094E0,-3.980181568E0,1.056816422E1
1.504565567E1,-9.236333181E0,1.952507513E0,-3.468656033E0,1.005752012E1
1.505559867E1,-8.978669191E0,1.971603642E0,-3.445458375E0,9.817072108E0
1.506554167E1,-8.953620304E0,1.945409286E0,-3.538441090E0,9.822041498E0
1.507548467E1,-9.027817962E0,1.870885353E0,-3.473573542E0,9.852280056E0
1.508542867E1,-8.996396195E0,1.928417277E0,-2.723917226E0,9.595502214E0
1.509537167E1,-8.814658300E0,1.773863234E0,-1.196520124E0,9.070636810E0
1.510531467E1,-6.820588194E0,2.102374866E0,8.310647607E-1,7.185476464E0
1.511525767E1,1.499302809E1,-2.982563547E0,5.846483581E0,1.636667183E1
1.512520117E1,6.810602436E1,-2.090807144E1,3.466407428E1,7.922863151E1
1.513514417E1,6.907924428E1,-1.074557906E1,2.271001257E1,7.350615029E1
1.514508717E1,6.871556618E1,-1.153794578E1,1.191243889E0,6.968767675E1
1.515503017E1,6.855877192E1,-3.476473761E1,-1.652984330E0,7.688708959E1
1.516497317E1,5.012598124E1,-1.924312941E1,-4.998833778E0,5.392495121E1
1.517491617E1,1.878024394E1,-7.888472790E0,1.714826091E0,2.044177570E1
1.518485917E1,7.026509002E0,-3.882243922E0,4.756325771E0,9.330931437E0
1.519480317E1,-3.823470342E0,-4.569357835E-1,-1.585605256E0,4.164355867E0
1.520474617E1,-1.912674292E1,6.240577730E0,-9.897635729E0,2.242187098E1
1.521468917E1,-2.673367812E1,7.715299312E0,-1.034491732E1,2.968556390E1
1.522463217E1,-1.211001631E1,3.005815585E0,4.716358298E-1,1.248638710E1
1.523457517E1,-6.820427395E0,1.659453689E0,6.268405214E0,9.410893705E0
1.524451817E1,-8.193814391E0,2.042311536E0,6.334900920E0,1.055654301E1
1.525446117E1,-7.976368135E0,2.057085842E0,6.640646564E0,1.058074844E1
1.526440417E1,-7.954376757E0,2.025943864E0,6.641920087E0,1.055896115E1
1.527434717E1,-9.211476667E0,1.490195069E0,6.740684237E0,1.151124701E1
1.528429017E1,-1.455752864E1,-4.344210796E-1,8.538525295E0,1.688243987E1
1.529423317E1,-1.985158015E1,-2.602931609E0,1.169702513E1,2.318794696E1
1.530417617E1,-1.905926605E1,-2.995439993E0,1.329031655E1,2.342777832E1
1.531412017E1,-1.522437785E1,-2.942148178E0,1.177569006E1,1.947061358E1
1.532406317E1,-1.025285057E1,-2.915337232E0,8.268914859E0,1.349055555E1
1.533400617E1,-6.296705153E0,-2.621251813E0,4.433036141E0,8.134572286E0
1.534394917E1,-4.590141470E0,-1.904348383E0,2.595297777E0,5.606381367E0
1.535389217E1,-5.166398606E0,-8.318064800E-1,2.877836407E0,5.972061534E0
1.536383517E1,-6.957649852E0,7.523235966E-1,3.847335168E0,7.986042208E0
1.537377817E1,-9.321414261E0,2.162560842E0,4.718156902E0,1.066894736E1
1.538372117E1,-1.203398029E1,3.066704396E0,4.855882804E0,1.333420246E1
1.539366417E1,-1.423652702E1,3.490925154E0,4.430373904E0,1.531317971E1
1.540360717E1,-1.563395192E1,3.600300246E0,3.632854035E0,1.644932348E1
1.541355017E1,-1.620376075E1,3.470666014E0,2.450227772E0,1.675144773E1
1.542349317E1,-1.583130948E1,3.887625115E0,1.051966721E0,1.633556313E1
1.543343717E1,-1.514310272E1,4.045276866E0,-4.925510278E-1,1.568185039E1
1.544338017E1,-1.449011141E1,4.036140884E0,-1.525001789E0,1.511884229E1
1.545332317E1,-1.382270554E1,3.936516901E0,-2.438503520E0,1.457771083E1
1.546326617E1,-1.381768044E1,3.557900916E0,-2.916767753E0,1.456346407E1
1.547320917E1,-1.357696811E1,3.360491899E0,-3.249898247E0,1.435927601E1
1.548315217E1,-1.223710905E1,3.274933393E0,-4.532211936E0,1.345410613E1
1.549309517E1,-1.064809545E1,3.365211187E0,-5.733949823E0,1.255327701E1
1.550303817E1,-9.407530884E0,3.382204657E0,-6.604186835E0,1.198149529E1
1.551298117E1,-8.362962645E0,3.400347106E0,-7.270404553E0,1.159138849E1
1.552292417E1,-7.240436404E0,3.507794664E0,-7.599303417E0,1.106697588E1
1.553286717E1,-5.966008855E0,3.567813701E0,-7.756047388E0,1.041531696E1
1.554281017E1,-4.747644410E0,3.569448583E0,-7.957552965E0,9.929941582E0
1.555275417E1,-3.782831608E0,3.456700816E0,-8.275944382E0,9.733953509E0
1.556269717E1,-3.051871764E0,3.308901916E0,-8.486231892E0,9.606189925E0
1.557264017E1,-2.429580523E0,3.236996366E0,-8.561620628E0,9.470076809E0
1.558258317E1,-1.954988194E0,3.275811937E0,-8.406630237E0,9.231703777E0
1.559252617E1,-2.234250483E0,3.078480104E0,-7.431801739E0,8.348688044E0
1.560246917E1,-5.109535604E0,2.110786963E0,-8.822863698E-1,5.598321617E0
1.561241217E1,-7.731683210E0,1.185558057E-1,6.335205560E0,9.996389860E0
1.562235517E1,-9.056615499E0,-1.343143735E0,9.964759426E0,1.353228546E1
1.563229817E1,-2.884661862E0,-8.154028766E0,2.101238343E1,2.272288971E1
1.564224117E1,4.543031623E1,-1.462689182E1,3.738342951E1,6.062491566E1
1.565218417E1,7.551741230E1,-1.850781164E1,5.331557189E1,9.427602482E1
1.566212717E1,4.287375918E1,-5.084099280E1,7.229582100E1,9.823263974E1
1.567207117E1,1.741632008E1,-4.109913391E1,5.681095788E1,7.224923493E1
1.568201417E1,1.503334464E1,-2.087002478E1,3.219151131E1,4.120500923E1
1.569195717E1,1.031991697E1,-1.098361103E1,1.823186750E1,2.365462724E1
1.570190017E1,3.617427911E0,-6.492237799E0,1.095517017E1,1.323822835E1
1.571184317E1,-5.523437780E-1,-3.847404165E0,5.583951784E0,6.803537314E0
1.572178617E1,-3.465958713E0,-1.473643648E0,1.400006445E0,4.018023574E0
1.573172917E1,-4.837634813E0,2.808180866E-1,-1.391294094E0,5.041554189E0
1.574167217E1,-5.753267854E0,1.750130409E0,-3.497297450E0,6.956589459E0
1.575161517E1,-6.455399755E0,2.842605763E0,-4.745527718E0,8.501330887E0
1.576155817E1,-6.958830990E0,3.536796561E0,-5.497251610E0,9.547462171E0
1.577150117E1,-7.256173600E0,3.851126502E0,-5.903701510E0,1.011617132E1
1.578144417E1,-7.532171534E0,4.040534774E0,-6.011079193E0,1.044952642E1
1.579138717E1,-7.817899820E0,4.152561286E0,-6.018897505E0,1.070469290E1
1.580133117E1,-8.047345147E0,4.106792498E0,-5.928769693E0,1.080628607E1
1.581127417E1,-8.209141697E0,4.027964430E0,-5.798176809E0,1.082743548E1
1.582121717E1,-8.346326147E0,3.991081948E0,-5.738034103E0,1.088645629E1
1.583116017E1,-8.418522888E0,3.960534924E0,-5.609608197E0,1.086393431E1
1.584110317E1,-8.644982042E0,3.995316209E0,-5.479560274E0,1.098744042E1
1.585104617E1,-8.831662588E0,4.051988300E0,-5.009606688E0,1.093220163E1
1.586098917E1,-8.834769214E0,4.291404007E0,-4.519403610E0,1.081176694E1
1.587093217E1,-9.063584211E0,4.541597886E0,-4.456574985E0,1.107410180E1
1.588087517E1,-9.224670324E0,4.744243670E0,-4.270542603E0,1.121783957E1
1.589081817E1,-9.379412209E0,4.942119294E0,-4.051319086E0,1.134949791E1
1.590076117E1,-9.547814358E0,5.088582691E0,-3.797925026E0,1.146641475E1
1.591070517E1,-9.954473004E0,5.351268854E0,-3.414663136E0,1.180624985E1
1.592064817E1,-1.053996289E1,5.622346941E0,-3.044085612E0,1.232753261E1
1.593059117E1,-1.120400896E1,5.678858526E0,-3.016777653E0,1.291821188E1
1.594053417E1,-1.214967680E1,5.498942624E0,-3.152754653E0,1.370375417E1
1.595047717E1,-1.309239532E1,5.327235628E0,-3.115538587E0,1.447400550E1
1.596042017E1,-1.345166696E1,5.393831322E0,-3.014554249E0,1.480298273E1
1.597036317E1,-1.278515220E1,5.770444050E0,-3.167495483E0,1.438023536E1
1.598030617E1,-1.183338220E1,6.165700625E0,-3.371475601E0,1.376269037E1
1.599024917E1,-1.116235222E1,6.437089199E0,-3.399620882E0,1.332635159E1
1.600019217E1,-1.079430859E1,6.614830522E0,-3.296740876E0,1.308210920E1
1.601013517E1,-1.073493830E1,6.736922139E0,-3.171030418E0,1.306447297E1
1.602007817E1,-1.072796842E1,6.914495646E0,-3.141174242E0,1.314406832E1
1.603002117E1,-1.051724880E1,6.953714676E0,-3.346924020E0,1.304486759E1
1.603996517E1,-1.018928783E1,6.839502767E0,-3.677029457E0,1.281096914E1
1.604990817E1,-9.721155651E0,6.696754691E0,-3.996074593E0,1.246258411E1
1.605985117E1,-9.154434739E0,6.560809851E0,-4.347974356E0,1.207281170E1
1.606979417E1,-8.602265793E0,6.378846254E0,-4.743036804E0,1.171260238E1
1.607973717E1,-8.098277904E0,6.157518616E0,-5.105308651E0,1.138250047E1
1.608968017E1,-7.644715233E0,5.892899364E0,-5.309938395E0,1.101650487E1
1.609962317E1,-7.206519629E0,5.645432333E0,-5.375638880E0,1.061613511E1
1.610956617E1,-6.840796756E0,5.458543042E0,-5.328637791E0,1.024629558E1
1.611950917E1,-6.551123353E0,5.421079347E0,-5.230851880E0,9.983342620E0
1.612945242E1,-6.300933275E0,5.468334205E0,-5.277989793E0,9.872264956E0
1.613939542E1,-6.078982909E0,5.521298869E0,-5.462741928E0,9.863078818E0
1.614933942E1,-5.960913007E0,5.500800869E0,-5.622983703E0,9.869611938E0
1.615928242E1,-5.967760681E0,5.339302527E0,-5.516010647E0,9.723615196E0
1.616922542E1,-6.414700211E0,4.936937492E0,-3.347415186E0,8.759390334E0
1.617916842E1,-6.204382296E0,2.812810691E0,3.648737996E0,7.727842689E0
1.618911142E1,6.552491017E0,-2.044371364E1,3.630557833E0,2.177295378E1
1.619905442E1,4.689157753E1,-5.588075475E1,1.977044184E1,7.558008444E1
1.620899742E1,7.331742781E1,-4.074792675E1,4.004998438E1,9.295073966E1
1.621894042E1,6.830733697E1,-4.230200440E1,7.288518760E1,1.084785805E2
1.622888342E1,4.705555216E1,-3.563236150E1,6.104767259E1,8.491589076E1
1.623882642E1,2.821725941E1,-1.722471150E1,3.102353934E1,4.533612696E1
1.624876942E1,1.355693087E1,-9.290952022E0,1.798613592E1,2.436417964E1
1.625871242E1,4.240576792E0,-6.186940051E0,8.548891824E0,1.137296224E1
1.626865642E1,-1.109385209E0,-3.257523309E0,3.016240001E0,4.576013264E0
1.627859942E1,-4.576516289E0,-7.449335200E-1,3.456680936E-1,4.649614362E0
1.628854242E1,-6.673369921E0,1.365648206E0,-2.124109844E0,7.135173702E0
1.629848542E1,-8.016380632E0,3.013254705E0,-3.790331247E0,9.365290883E0
1.630842842E1,-8.640800114E0,3.841792592E0,-3.899123372E0,1.022868320E1
1.631837142E1,-9.300691729E0,4.232278424E0,-3.949205943E0,1.095496576E1
1.632831442E1,-9.399624864E0,4.631257337E0,-3.976926423E0,1.120791845E1
1.633825742E1,-9.312370373E0,4.697545466E0,-3.864045048E0,1.112286022E1
1.634820042E1,-9.221843196E0,4.631320779E0,-3.665222174E0,1.095104459E1
1.635814342E1,-9.138098204E0,4.557127214E0,-3.411881616E0,1.076629850E1
1.636808642E1,-9.264975182E0,4.420018485E0,-3.248180335E0,1.076694033E1
1.637802942E1,-9.387526390E0,4.361008092E0,-2.738782602E0,1.070723930E1
1.638797342E1,-9.490388854E0,4.285700048E0,-2.163140886E0,1.063550112E1
1.639791642E1,-9.611255479E0,4.229051053E0,-2.021437561E0,1.069333037E1
1.640785942E1,-9.785797790E0,4.208326767E0,-1.751232317E0,1.079530765E1
1.641780242E1,-9.914770410E0,4.134184949E0,-1.628119630E0,1.086484841E1
1.642774542E1,-9.966956810E0,4.086340107E0,-1.534175632E0,1.088081331E1
1.643768842E1,-1.004027622E1,4.169112415E0,-1.284385357E0,1.094706767E1
1.644763142E1,-1.014133832E1,4.310998611E0,-1.331471815E0,1.109974185E1
1.645757442E1,-1.048322151E1,4.529744411E0,-1.526997005E0,1.152164214E1
1.646751742E1,-1.202031301E1,4.403446014E0,-6.968430948E-1,1.282044663E1
1.647746042E1,-1.437516100E1,4.197834231E0,-1.750086263E-2,1.497555916E1
1.648740342E1,-1.539434589E1,4.505692766E0,-9.330606669E-1,1.606728835E1
1.649734742E1,-1.513532008E1,5.088702559E0,-8.486274576E-1,1.599040263E1
1.650729042E1,-1.395929883E1,5.663533559E0,-7.593470527E-1,1.508357531E1
1.651723342E1,-1.332093491E1,5.917809672E0,-8.183916517E-1,1.459923091E1
1.652717642E1,-1.338492918E1,6.218351294E0,-5.517912161E-1,1.476918060E1
1.653711942E1,-1.334165277E1,6.391731763E0,-5.377764635E-1,1.480348395E1
1.654706242E1,-1.305653785E1,6.236682315E0,-1.247868618E0,1.452331102E1
1.655700542E1,-1.284701808E1,6.067977279E0,-1.898388901E0,1.433422835E1
