"Time (s)","Linear Acceleration x (m/s^2)","Linear Acceleration y (m/s^2)","Linear Acceleration z (m/s^2)","Absolute acceleration (m/s^2)"
4.420208333E-2,2.363935733E-1,-2.680825585E-1,-6.418471080E-1,7.346549460E-1
5.427608333E-2,1.760997167E-1,-3.627437174E-1,-8.488356185E-1,9.397425296E-1
6.434908333E-2,8.035711527E-2,-2.971788883E-1,-7.347926939E-1,7.966761328E-1
7.442308332E-2,-1.416432443E-1,-1.597962177E-1,-5.222288632E-1,5.641991009E-1
8.449608333E-2,-1.784178454E-1,-7.332583845E-2,-1.953455347E-1,2.745350325E-1
9.457008333E-2,2.594275099E-1,-2.895985579E-1,1.137909096E-1,4.051152043E-1
1.046430833E-1,7.953879744E-1,-4.824964482E-1,2.617055851E-1,9.664029520E-1
1.147160833E-1,1.212325441E0,-4.986365175E-1,8.358828664E-2,1.313528969E0
1.247900833E-1,1.317939604E0,-4.473321703E-1,1.065350997E-1,1.395858373E0
1.348630833E-1,9.708585307E-1,-3.261723071E-1,3.314470804E-1,1.076481225E0
1.449370833E-1,3.278679997E-1,-5.330877274E-2,5.797584486E-1,6.681759568E-1
1.550100833E-1,-1.351525426E-2,4.301328778E-2,8.081612170E-1,8.094179129E-1
1.650840833E-1,2.355527437E-1,-5.414258569E-2,5.502276707E-1,6.009717166E-1
1.751570833E-1,4.009780759E-1,-7.191929072E-2,4.089437377E-1,5.772268032E-1
1.852300833E-1,2.998887804E-1,-5.158121288E-3,2.377928120E-1,3.827601184E-1
1.953040833E-1,7.626289487E-2,1.213396651E-1,1.753194058E-1,2.264425700E-1
2.053770833E-1,-2.385403785E-1,1.510493678E-1,3.224458766E-1,4.285892754E-1
2.154510833E-1,-4.935836461E-1,1.978539902E-1,7.206377542E-1,8.955946572E-1
2.255240833E-1,-4.698009735E-1,1.325940934E-1,1.103622193E0,1.206762650E0
2.355980833E-1,-2.961620575E-1,1.491466838E-1,1.418700578E0,1.456937894E0
2.456710833E-1,3.669768092E-1,1.064543497E0,1.469043351E0,1.850949271E0
2.557450833E-1,9.319035029E-1,1.000516778E0,-3.035172701E-2,1.367625383E0
2.658180833E-1,1.239438395E0,6.629883009E-1,3.923481703E-3,1.405623141E0
2.758910833E-1,1.273757750E0,6.177817225E-1,6.551881152E-1,1.559930937E0
2.859650833E-1,7.906312644E-1,8.131860217E-1,1.064052916E0,1.555177774E0
2.960380833E-1,3.472559050E-1,9.907802868E-1,2.022305142E0,2.278585159E0
3.061120833E-1,2.237746972E-1,1.150883191E0,2.442845078E0,2.709630843E0
3.161850833E-1,-2.058045955E-1,6.901304913E-1,1.594506472E0,1.749596101E0
3.262590833E-1,3.805525821E-1,4.214290050E-1,4.338721722E-1,7.146101985E-1
3.363320833E-1,1.197384928E0,2.215939781E-1,-1.889930027E0,2.248259340E0
3.464050833E-1,1.584969810E0,-8.059731889E-1,-4.407268631E0,4.752445567E0
3.564790833E-1,1.968277161E0,-2.972381499E0,-3.902980780E0,5.286059565E0
3.665520833E-1,1.867069314E0,-4.571341503E0,-3.177184027E-1,4.948136613E0
3.766260833E-1,6.782457331E-1,-4.937386558E0,3.024312667E0,5.829602937E0
3.866990833E-1,-7.140879956E-1,-4.116405321E0,4.533309458E0,6.164868942E0
3.967730833E-1,-1.115131706E0,-3.388450653E0,2.536755454E0,4.377241687E0
4.068460833E-1,1.519837528E-1,-3.045666114E0,-1.869526168E0,3.576913366E0
4.169200833E-1,6.952013429E-1,-2.451252789E0,-3.410333565E0,4.257031850E0
4.269930833E-1,1.230730868E0,-2.704545400E0,-3.353288714E0,4.480380507E0
4.370660833E-1,2.050968778E0,-2.501631522E0,-1.694414338E0,3.651804095E0
4.471400833E-1,2.319422342E0,-2.299382472E0,-2.322619307E-1,3.274267148E0
4.572130833E-1,2.530968465E0,-2.623604733E0,-8.686243504E-1,3.747480677E0
4.672870833E-1,3.072639905E0,-2.927637435E0,-3.061059494E0,5.232806337E0
4.773600833E-1,3.773763161E0,-3.155852800E0,-6.770661743E0,8.369143070E0
4.874340833E-1,2.571547264E0,-3.912774282E0,-5.297376237E0,7.069996669E0
4.975070833E-1,2.495267705E0,-3.539230757E0,-2.986532637E0,5.260408013E0
5.075800833E-1,2.185533236E0,-2.726426851E0,-6.553155845E-1,3.555193021E0
5.176540833E-1,-2.289497754E-1,-2.316362786E-1,-9.482113874E-1,1.002585757E0
5.277270833E-1,-6.868368716E0,7.057357743E0,-5.714140626E0,1.138561330E1
5.378010833E-1,-4.300661026E0,-2.085269129E0,-5.970546879E0,7.647971145E0
5.478740833E-1,-1.567270434E0,-7.633880342E0,-7.953924767E0,1.113541130E1
5.579480833E-1,-1.919426891E0,-7.247042588E0,-2.825796188E0,8.011800669E0
5.680210833E-1,-1.381542985E0,-7.548502808E0,-8.020801127E-1,7.715691036E0
5.780950833E-1,4.871438152E-1,-8.685876299E0,-1.104956528E0,8.769417604E0
5.881680833E-1,9.631475151E-1,-7.672855543E0,-7.834310031E-1,7.772652665E0
5.982410833E-1,-4.161539394E-1,-6.970261127E0,-2.827795351E0,7.533535081E0
6.083150833E-1,-1.544787013E0,-8.343216598E0,-2.100969488E0,8.741264377E0
6.183880833E-1,-9.827140528E-1,-8.217225473E0,-7.277011907E-1,8.307711502E0
6.284620833E-1,-2.133599875E0,-8.459800138E0,-2.555389361E0,9.091231027E0
6.385350833E-1,-3.844446058E0,-8.240347118E0,-3.294958645E0,9.671599588E0
6.486090833E-1,-2.526260871E0,-7.729660074E0,-7.126525041E-1,8.163180289E0
6.586820833E-1,-2.346105233E0,-8.080371391E0,1.874668209E0,8.620382385E0
6.687550833E-1,-2.910974917E0,-8.348696609E0,3.922628009E0,9.672720431E0
6.788290833E-1,-1.493560141E0,-7.173786916E0,6.056644206E0,9.506675531E0
6.889020833E-1,1.876881965E0,-7.046669033E0,6.043158188E0,9.470902346E0
6.989760833E-1,4.648513055E0,-6.199474728E0,5.259965751E0,9.365329691E0
7.090490833E-1,6.883279701E0,-3.663610974E0,4.511524194E0,9.008631159E0
7.191230833E-1,7.910850084E0,-1.935444168E0,3.556761294E0,8.886959215E0
7.291952500E-1,8.818640839E0,3.585296657E-1,4.957631373E0,1.012299751E1
7.392692500E-1,9.386503712E0,1.274988589E0,5.538187382E0,1.097285593E1
7.493422500E-1,1.033290246E1,2.337245825E0,5.945619614E0,1.214833256E1
7.594152500E-1,1.177554622E1,4.219043251E0,5.976660143E0,1.386305454E1
7.694892500E-1,1.279626893E1,5.785144535E0,5.018941183E0,1.491315414E1
7.795622500E-1,1.359908462E1,6.368355764E0,3.984892670E0,1.553610077E1
7.896362500E-1,1.366168491E1,7.203790734E0,3.365923963E0,1.580714015E1
7.997092500E-1,1.245816538E1,8.078058817E0,2.683781353E0,1.508852548E1
8.097832500E-1,1.064558934E1,8.415855389E0,2.566052343E0,1.381085873E1
8.198562500E-1,8.113162576E0,7.952771112E0,2.535892405E0,1.164047790E1
8.299292500E-1,6.063995326E0,6.502010835E0,3.324176012E0,9.492014031E0
8.400032500E-1,5.544604116E0,7.792200138E0,3.363649396E0,1.013780820E1
8.500762500E-1,3.494866762E0,7.774970732E0,2.894815844E0,9.002456462E0
8.601502500E-1,2.213147736E0,6.851136972E0,9.790115958E-1,7.265986816E0
8.702232500E-1,2.101308627E0,7.790675769E0,3.161868708E-1,8.075277148E0
8.802972500E-1,1.498250778E0,7.250068522E0,-9.821370788E-1,7.468121732E0
8.903702500E-1,1.066346194E0,6.225636925E0,-1.785643766E0,6.563853516E0
9.004442500E-1,1.186788311E0,1.044983859E1,-2.530787201E0,1.081723056E1
9.105172500E-1,5.989840937E-1,1.003682402E1,-4.816681316E0,1.114885811E1
9.205902500E-1,-1.298142686E0,5.509398031E0,-8.777288745E0,1.044411024E1
9.306642500E-1,-3.121298679E0,2.603084514E0,-1.024857041E1,1.102505101E1
9.407372500E-1,-4.750904818E0,9.576784681E-1,-9.200648793E0,1.039904721E1
9.508112500E-1,-5.295855961E0,1.068847048E0,-6.974831895E0,8.822516894E0
9.608842500E-1,-5.009107921E0,1.498504255E0,-2.835661025E0,5.947911449E0
9.709582500E-1,-3.737665375E0,8.035884020E-1,-1.490645889E0,4.103403702E0
9.810312500E-1,-2.094520009E0,1.539373953E0,-2.134647696E0,3.363540846E0
9.911042500E-1,-1.193944718E0,1.716457902E0,-3.499212413E0,4.076299698E0
1.001178250E0,-4.555495548E-1,2.065909437E0,-3.681329792E0,4.245903465E0
1.011251250E0,2.001303113E-1,8.527167079E-1,-2.858854591E0,2.990021320E0
1.021325250E0,1.008942908E-1,3.400179291E0,-1.824574674E0,3.860112901E0
1.031398250E0,-4.970782346E-1,2.513286484E0,-1.122227741E0,2.796978875E0
1.041472250E0,-1.099252569E0,-9.624186596E-1,-1.313613249E0,1.964735518E0
1.051545250E0,-1.615372846E0,-8.768926057E-1,-9.453567767E-1,2.066898524E0
1.061619250E0,-2.165280089E0,-1.228756555E-1,-6.257992785E-1,2.257246338E0
1.071692250E0,-1.941189643E0,-2.443006899E-1,-1.544538360E0,2.492689070E0
1.081765250E0,-3.889790046E-1,-4.222508311E-1,-1.893137809E0,1.978274803E0
1.091839250E0,8.846018672E-1,-5.855694115E-3,-8.783897853E-1,1.246644844E0
1.101912250E0,1.577356004E0,1.047158482E0,-1.084635261E0,2.181977658E0
1.111986250E0,2.733821239E0,2.658984481E0,-7.018202448E-1,3.877696313E0
1.122059250E0,3.541819904E0,1.467934719E0,-2.653631647E-1,3.843141707E0
1.132133250E0,3.531935771E0,1.426797802E0,-5.451136959E-1,3.848047712E0
1.142206250E0,3.823538754E0,2.211086884E0,1.472020314E0,4.655662962E0
1.152280250E0,3.966277474E0,5.725494164E-1,1.846425573E0,4.412307472E0
1.162353250E0,3.456127789E0,-7.662124148E-1,2.830590320E-1,3.551341039E0
1.172426250E0,3.414153551E0,9.117625494E-2,2.014554365E-1,3.421307042E0
1.182500250E0,4.322977509E0,-1.220691052E0,9.153067660E-1,4.584321942E0
1.192573250E0,4.636521585E0,-6.033014584E-2,8.876060204E-1,4.721103323E0
1.202647250E0,4.474571838E0,2.647689779E-1,5.362330909E-1,4.514359497E0
1.212720250E0,4.321387067E0,7.282525831E-1,1.427127585E0,4.608842713E0
1.222794250E0,2.949886968E0,6.794297943E-1,1.609447132E0,3.428378339E0
1.232867250E0,1.791893855E0,1.784743587E0,1.642054861E0,3.015383462E0
1.242940250E0,-4.660815597E-3,2.758926260E0,8.026955321E-2,2.760097649E0
1.253014250E0,-2.504260722E0,2.790832177E0,-2.686199176E-1,3.759284861E0
1.263087250E0,-4.458386160E0,8.091811176E-1,3.385026231E-2,4.531349366E0
1.273161250E0,-4.359542488E0,9.107944697E-2,7.454708791E-1,4.423757792E0
1.283234250E0,-4.070766633E0,1.620880339E0,3.003151009E0,5.311996803E0
1.293308250E0,-2.607046587E0,-6.749107736E-1,3.856300703E0,4.703536071E0
1.303381250E0,1.725516263E0,-3.302722578E0,3.344298620E0,5.006966753E0
1.313455250E0,4.463142285E0,-3.478008947E0,4.735385138E0,7.378350608E0
1.323528250E0,1.889003828E0,-2.319066246E0,4.780855426E0,5.639413295E0
1.333601250E0,-2.260743486E0,6.973004933E-1,3.667570416E0,4.364431446E0
1.343675250E0,-2.905683771E0,3.690445601E0,2.396398159E0,5.273055191E0
1.353748250E0,-5.848706692E-1,3.999273312E0,5.709265217E-1,4.081937998E0
1.363822250E0,2.207969441E0,2.566679457E0,-6.824881804E-1,3.453804078E0
1.373895250E0,3.962271547E0,1.105703217E0,-9.167682776E-1,4.214574651E0
1.383969250E0,6.308529977E0,-1.747256210E-1,-8.626309544E-1,6.369631989E0
1.394042250E0,6.562296213E0,-1.514737295E0,-1.190758570E0,6.839303081E0
1.404116250E0,3.107275887E0,-3.101983279E0,-2.321268308E0,4.966462550E0
1.414189250E0,-2.029900675E0,-4.638148280E0,-5.630964568E0,7.572362787E0
1.424262250E0,-6.429855609E0,-3.909747763E0,-5.544756728E0,9.347379199E0
1.434336250E0,-9.329360628E0,-1.805318477E0,-1.724479844E0,9.657638182E0
1.444409250E0,-9.863814265E0,-1.106696659E0,1.575321758E0,1.004993771E1
1.454483250E0,-9.775246489E0,4.687636775E-1,1.808657237E0,9.952207007E0
1.464556250E0,-7.690362691E0,2.344770899E0,1.387351609E0,8.158699245E0
1.474630250E0,-6.013529177E0,5.207461848E0,-1.493724740E0,8.093911641E0
1.484703250E0,-4.442531435E0,5.098607157E0,-4.270919749E0,7.998289567E0
1.494776250E0,-1.792555760E0,2.651470224E0,-3.117535411E0,4.467950038E0
1.504850250E0,1.212544127E0,2.439686412E-1,3.314169672E-1,1.280476928E0
1.514923250E0,3.265844189E0,-2.452939711E0,3.325235528E0,5.266862710E0
1.524997250E0,1.586360716E0,-1.074344015E-1,5.553571991E0,5.776698393E0
1.535070250E0,1.788655082E0,1.539693503E0,3.030132693E0,3.840787319E0
1.545144250E0,2.095525146E0,2.806279936E0,-8.655760507E-1,3.607721527E0
1.555217250E0,1.408582556E-1,4.159561865E0,-4.234999133E0,5.937761667E0
1.565291250E0,-4.113674086E-1,3.988403338E0,-4.643077483E0,6.134717014E0
1.575364250E0,-1.392754143E-1,2.376519526E0,-5.664795680E-1,2.447068000E0
1.585437250E0,2.801985741E-3,-1.303237950E0,4.384752173E0,4.574329309E0
1.595511250E0,-4.339101791E-1,-3.656315403E0,4.942753133E0,6.163418605E0
1.605584250E0,-2.169372556E0,-2.896842197E0,1.739992361E0,4.015650061E0
1.615658250E0,-3.678775728E0,4.152838737E-1,-2.220591387E0,4.317045015E0
1.625731250E0,-2.776134031E0,4.246625737E0,-2.368543485E0,5.599173916E0
1.635805250E0,-2.257245682E0,4.062761210E0,-3.163754143E0,5.622323985E0
1.645878250E0,-2.817135292E0,4.008016654E0,-5.459662199E-1,4.929353696E0
1.655952250E0,-2.512578387E0,4.203089708E0,-7.204456732E-2,4.897367013E0
1.666025250E0,-1.648560473E0,4.425558137E0,-8.345042391E-1,4.795801683E0
1.676098250E0,-2.748559731E-1,4.336395700E0,-8.197676477E-1,4.421752194E0
1.686172250E0,1.884093336E0,3.860657464E0,-5.304124801E-1,4.328489477E0
1.696245250E0,4.324500124E0,3.036281918E0,1.064099839E0,5.390048022E0
1.706319250E0,5.906447362E0,2.331301838E0,2.424897634E0,6.797147728E0
1.716392250E0,5.773859408E0,2.043591346E0,3.265027918E0,6.940758270E0
1.726466583E0,4.455580081E0,2.454801464E0,4.325029882E0,6.677134683E0
1.736539583E0,2.705331851E0,2.710899569E0,5.263838947E0,6.509669527E0
1.746612583E0,1.266658938E0,2.527620349E0,5.860026902E0,6.506397220E0
1.756686583E0,3.211735225E-1,1.048154336E0,6.149181072E0,6.246135429E0
1.766759583E0,-3.406346349E0,-3.645308604E0,6.977952554E0,8.578070419E0
1.776833583E0,-7.776216774E0,-9.277613938E0,6.290909393E0,1.364255140E1
1.786906583E0,-5.028204342E0,-5.585479662E0,3.243020167E0,8.185206275E0
1.796980583E0,-2.770981464E0,-2.177752200E0,2.550946062E0,4.350663022E0
1.807053583E0,-2.100105854E0,3.103006250E-1,1.874089919E0,2.831774020E0
1.817127583E0,-1.797934613E0,2.283955178E0,1.571380963E-2,2.906762297E0
1.827200583E0,-1.764441762E0,3.146051112E0,-1.610535445E0,3.950280592E0
1.837273583E0,-2.308705273E0,3.701374047E0,-2.301015015E0,4.932034060E0
1.847347583E0,-3.026632842E0,4.118874015E0,-1.576334496E0,5.348874644E0
1.857420583E0,-3.615611473E0,3.136982081E0,-3.421848341E-1,4.798999204E0
1.867494583E0,-3.045890062E0,6.223975146E-1,1.446560807E0,3.428901151E0
1.877567583E0,-2.957712589E0,-2.024138244E0,3.285571525E0,4.862116785E0
1.887641583E0,-4.208717068E0,-3.115074903E0,2.986219811E0,6.027810529E0
1.897714583E0,-5.202871783E0,-2.084832927E0,1.647012715E0,5.842007704E0
1.907788583E0,-4.914169604E0,3.893888944E-1,1.147245346E0,5.061309958E0
1.917861583E0,-4.763560239E0,2.274372761E0,1.948563566E0,5.626826599E0
1.927934583E0,-4.296980496E0,3.823061036E0,2.167892625E0,6.146510840E0
1.938008583E0,-3.548782184E0,3.540974396E0,1.902048966E0,5.361916162E0
1.948081583E0,-2.851206140E0,7.017886698E-1,1.334815253E0,3.225463618E0
1.958155583E0,-1.819595185E0,-7.436775380E-1,1.184408494E0,2.294952374E0
1.968228583E0,-1.477509534E-1,-2.579342480E0,1.716105169E0,3.101589096E0
1.978302583E0,-9.713248461E-2,-6.521339976E0,1.968748155E0,6.812729196E0
1.988375583E0,3.212572838E-1,-1.036332903E1,-3.124744736E-2,1.036835432E1
1.998449583E0,1.595299355E0,-1.566979184E1,-7.272213682E0,1.734855753E1
2.008522583E0,4.213383731E0,-1.667526501E1,-1.356877382E1,2.190727479E1
2.018595583E0,5.942794240E0,-1.278567845E1,-1.419157363E1,2.000477790E1
2.028669583E0,5.204244125E0,-8.529343413E0,-9.856881806E0,1.403538296E1
2.038742583E0,3.517328256E0,-5.840677881E0,-6.600455142E0,9.489527083E0
2.048816583E0,1.853910009E0,-5.036883364E0,-3.891307983E0,6.629438450E0
2.058889583E0,1.032954061E0,-3.404528450E0,-1.367012361E0,3.811368632E0
2.068963583E0,7.511163658E-1,-8.613229322E-1,3.229415743E-1,1.187579155E0
2.079036583E0,4.129335853E-1,1.610216771E0,1.583226170E0,2.295630045E0
2.089109583E0,-2.353491144E-1,3.220678541E0,2.099299085E0,3.851651090E0
2.099183583E0,-1.469694000E0,3.744002588E0,2.118768997E0,4.546068400E0
2.109256583E0,-2.153892637E0,4.528273836E0,3.397449811E0,6.056994522E0
2.119330583E0,-1.236467278E0,8.118365428E0,5.685093412E0,9.987842393E0
2.129403583E0,-4.775087732E-1,1.007014262E1,7.463636320E0,1.254359016E1
2.139477583E0,-5.464011066E-1,6.607554832E0,6.338225062E0,9.172318788E0
2.149550583E0,-3.411134049E-1,9.874239850E-1,1.756573749E0,2.043750429E0
2.159624583E0,-1.720277157E-1,-2.888656095E0,-2.627038510E0,3.908357571E0
2.169697583E0,2.744428673E-1,-4.308898584E0,-4.736788762E0,6.409297439E0
2.179770583E0,1.008319302E0,-4.662452232E0,-4.911078765E0,6.846448954E0
2.189844583E0,1.073343410E0,-4.405672926E0,-4.584985688E0,6.448574553E0
2.199917583E0,1.239275842E0,-2.568169035E0,-3.878122804E0,4.813640337E0
2.209991583E0,6.369532809E-1,-1.390870755E0,-1.933443836E0,2.465448439E0
2.220064583E0,1.190443406E-1,-1.321131599E-1,5.680499840E-1,5.952362777E-1
2.230138583E0,-3.993206826E-1,1.076544907E0,2.483749567E0,2.736314649E0
2.240211583E0,-1.178163668E0,1.507187077E0,3.369533449E0,3.874717819E0
2.250284583E0,-1.839002532E0,1.985646023E0,4.774188138E0,5.487949783E0
2.260358583E0,-2.582640894E0,2.168974360E0,5.050921944E0,6.073408948E0
2.270431583E0,-3.201566917E0,2.244304039E0,2.945772574E0,4.895355697E0
2.280505583E0,-3.792829762E0,2.806867581E0,1.842155643E0,5.065333221E0
2.290578583E0,-4.176923126E0,3.216508307E0,9.493419465E-1,5.356665252E0
2.300652583E0,-3.943520403E0,3.421430411E0,7.864563525E-2,5.221467645E0
2.310725583E0,-3.118821214E0,3.395430767E0,-3.558992592E-1,4.624138854E0
2.320799583E0,-2.092726376E0,2.252749173E0,-1.055475927E0,3.250909404E0
2.330872583E0,-1.192906253E0,8.084535778E-1,-1.875617212E0,2.365282740E0
2.340945583E0,-3.589547217E-1,-2.103494900E-1,-2.527209874E0,2.561227274E0
2.351019583E0,6.419897801E-1,-1.125258061E0,-3.478804168E0,3.712200833E0
2.361092583E0,1.353346541E0,-1.955958540E0,-3.451757288E0,4.191890867E0
2.371166583E0,1.503172087E0,-2.474567392E0,-2.279888440E0,3.685227455E0
2.381239583E0,1.145604909E0,-2.295723284E0,-5.251232350E-1,2.618875793E0
2.391313583E0,5.513792798E-1,-1.398905999E0,1.117281289E0,1.873305790E0
2.401386583E0,1.507608077E-1,-6.699564278E-2,1.748977923E0,1.756741590E0
2.411459583E0,-8.819355369E-2,1.194221292E0,1.511109390E0,1.928054507E0
2.421533583E0,-1.443759406E-1,1.954746412E0,1.365776260E0,2.388979435E0
2.431606583E0,2.088309681E-1,2.405031719E0,6.515610874E-1,2.500463915E0
2.441680583E0,8.032784995E-1,2.836849764E0,-8.201325139E-1,3.060325191E0
2.451753583E0,1.391637325E0,3.077466781E0,-2.313467830E0,4.093847779E0
2.461827583E0,1.833788570E0,2.897543278E0,-2.698344428E0,4.363439036E0
2.471900583E0,2.075149353E0,2.451363301E0,-8.645429939E-1,3.326088012E0
2.481974583E0,2.060039271E0,1.803657868E0,1.428266623E0,3.088185397E0
2.492047583E0,2.151074864E0,7.202547616E-1,1.295624290E0,2.612380579E0
2.502120583E0,2.810621786E0,-6.049926925E-1,-2.775788460E0,3.996324881E0
2.512194583E0,3.319075194E0,-2.418791971E0,-5.673985457E0,7.004350484E0
2.522267583E0,3.145623973E0,-3.873056484E0,-4.158680690E0,6.495393891E0
2.532341583E0,2.763478317E0,-4.188105633E0,-2.747306673E0,5.720553746E0
2.542414583E0,2.006244010E0,-3.415372111E0,-2.180423793E0,4.521507448E0
2.552488583E0,1.076283829E0,-2.630200977E0,-1.824640601E0,3.377226285E0
2.562561583E0,1.532096216E-1,-2.074441255E0,-1.670847135E0,2.668053571E0
2.572634583E0,-5.303635097E-1,-1.883081183E0,-1.869736667E0,2.706140314E0
2.582708583E0,-8.869939631E-1,-2.144315482E0,-2.372997748E0,3.319030806E0
2.592781583E0,-6.973444936E-1,-2.870195850E0,-2.853022285E0,4.106586140E0
2.602855583E0,8.062023997E-2,-3.885368382E0,-2.966234028E0,4.888878337E0
2.612928583E0,9.300133905E-1,-5.276702237E0,-2.523831061E0,5.922688125E0
2.623002583E0,1.896419559E0,-7.464843770E0,-1.686133219E0,7.884373461E0
2.633075583E0,2.853755819E0,-1.000277568E1,-9.293947551E-1,1.044333368E1
2.643149583E0,4.116340124E0,-1.269332402E1,-1.015192412E0,1.338265094E1
2.653222583E0,5.842049053E0,-1.487382909E1,-1.767422673E0,1.607744108E1
2.663295583E0,7.540893241E0,-1.568087466E1,-1.357696577E0,1.745274308E1
2.673369583E0,8.815139526E0,-1.468661878E1,-3.469898567E-1,1.713253800E1
2.683442583E0,9.764943695E0,-1.342443297E1,8.039911290E-1,1.661974511E1
2.693516583E0,1.105668485E1,-1.189512061E1,9.553531766E-1,1.626827815E1
2.703589583E0,1.151915634E1,-8.912788612E0,-2.750202799E-1,1.456723720E1
2.713663583E0,9.304340392E0,-4.624882118E0,-1.344569578E0,1.047702974E1
2.723736583E0,4.964655633E0,-1.431801265E0,-1.016634628E0,5.266061753E0
2.733809625E0,1.301489047E0,6.626947707E-1,-3.412994926E-1,1.499841139E0
2.743883625E0,-1.484344345E0,2.673188537E0,4.144566388E-1,3.085610052E0
2.753956625E0,-3.591297289E0,4.764610691E0,1.135614649E0,6.073594643E0
2.764030625E0,-4.833786176E0,6.188227608E0,1.004923386E0,7.916408323E0
2.774103625E0,-5.033407195E0,7.147916495E0,6.308106346E-1,8.765033957E0
2.784177625E0,-4.995488586E0,8.055425414E0,5.590033181E-1,9.495118195E0
2.794250625E0,-4.885352186E0,8.994992278E0,8.039522450E-1,1.026756501E1
2.804324625E0,-4.939845897E0,9.684590673E0,9.313947952E-1,1.091150174E1
2.814397625E0,-5.338174599E0,1.000563848E1,8.299840491E-1,1.137091830E1
2.824470625E0,-5.288562144E0,9.944570160E0,9.915288766E-1,1.130692243E1
2.834544625E0,-4.919190023E0,9.749464946E0,1.552058172E0,1.102993118E1
2.844617625E0,-4.625453098E0,9.576055241E0,2.109458914E0,1.084183874E1
2.854691625E0,-4.407627066E0,9.410000163E0,2.322432196E0,1.064748659E1
2.864764625E0,-4.245448400E0,9.406186609E0,2.546126786E0,1.062934336E1
2.874838625E0,-4.070150337E0,9.446556956E0,2.742532421E0,1.064542372E1
2.884911625E0,-3.877051302E0,9.487599147E0,2.845532295E0,1.063687541E1
2.894984625E0,-3.685690060E0,9.502667422E0,2.897495331E0,1.059624832E1
2.905058625E0,-3.484483569E0,9.491678749E0,2.906645054E0,1.052055971E1
2.915131625E0,-3.268153254E0,9.496845934E0,3.009077747E0,1.048453419E1
2.925205625E0,-3.059974251E0,9.547424349E0,3.134014034E0,1.050422763E1
2.935278625E0,-2.863427113E0,9.589870457E0,3.144382609E0,1.049056587E1
2.945352625E0,-2.666402843E0,9.652453206E0,3.160402226E0,1.050084279E1
2.955425625E0,-2.493080554E0,9.741336147E0,3.125492010E0,1.052985189E1
2.965498625E0,-2.314982551E0,9.817400236E0,3.136036294E0,1.056291699E1
2.975572625E0,-2.097275656E0,9.845756893E0,3.181247258E0,1.055735895E1
2.985645625E0,-1.936010325E0,9.910766237E0,3.178605193E0,1.058654591E1
2.995719625E0,-1.752816035E0,9.908642528E0,3.124875129E0,1.053652720E1
3.005792625E0,-1.595773272E0,9.940465415E0,3.132220986E0,1.054372578E1
3.015866625E0,-1.493894894E0,9.959157794E0,3.092897583E0,1.053482612E1
3.025939625E0,-1.399792291E0,9.926792285E0,2.984303971E0,1.045976547E1
3.036012625E0,-1.349209051E0,9.762656849E0,2.951500214E0,1.028791463E1
3.046086625E0,-1.330419609E0,9.448190083E0,2.953861612E0,9.988173537E0
3.056159625E0,-1.268594074E0,9.111171775E0,2.797416726E0,9.615005064E0
3.066233625E0,-1.288506474E0,6.948275011E0,-5.946548152E0,9.235811252E0
3.076306625E0,-1.589022223E0,3.901412557E0,-1.760219604E1,1.809926289E1
3.086380625E0,-2.777647290E0,-8.775963181E-1,-1.599335103E1,1.625646877E1
3.096453625E0,-2.743511830E0,-2.811281059E0,-1.124701640E1,1.191325045E1
3.106527625E0,-1.874077348E0,-1.667237649E0,-4.242985260E0,4.928972632E0
3.116600625E0,-1.078429319E0,-2.730834482E0,-1.187727374E-1,2.938464518E0
3.126673625E0,2.951572135E-1,-8.431127146E0,-4.610307348E-1,8.448879930E0
3.136747625E0,2.083341010E-1,-1.691383726E1,-2.305242844E0,1.707148027E1
3.146820625E0,1.355741707E0,-2.613936479E1,1.814598593E-1,2.617512855E1
3.156894625E0,2.317139589E0,-3.034523192E1,7.128664538E0,3.125732065E1
3.166967625E0,3.811661890E0,-3.312723656E1,7.221052884E0,3.411870708E1
3.177041625E0,6.011253440E0,-3.639926827E1,3.022592416E-1,3.689353953E1
3.187114625E0,8.045833642E0,-3.363007605E1,-3.685377527E0,3.477498328E1
3.197187625E0,6.833052703E0,-2.236705466E1,-2.298010715E0,2.350014035E1
3.207261625E0,4.298870609E0,-1.254847562E1,4.996942788E-2,1.326450248E1
3.217334625E0,2.582897587E0,-6.007990694E0,8.817639211E-1,6.598849880E0
3.227408625E0,1.334181415E0,-1.384138271E0,2.325858665E-1,1.936485215E0
3.237481625E0,7.829769668E-1,1.968534147E0,-5.823335624E-1,2.197109919E0
3.247555625E0,4.356637591E-1,4.287906495E0,-9.890984814E-1,4.422019994E0
3.257628625E0,2.515407854E-1,5.953957744E0,-1.133749680E0,6.066158085E0
3.267702625E0,1.839816172E-1,7.015964718E0,-8.974829909E-1,7.075527251E0
3.277775625E0,2.142932177E-1,7.655737234E0,-4.031552866E-1,7.669339500E0
3.287848625E0,3.908766454E-1,7.949957432E0,8.345877081E-2,7.959998309E0
3.297922625E0,5.860059793E-1,8.057483050E0,5.419982994E-1,8.096925235E0
3.307995625E0,7.913910370E-1,8.096391007E0,6.523959236E-1,8.161094752E0
3.318069625E0,9.210346985E-1,8.175992662E0,5.310770161E-1,8.244828908E0
3.328142625E0,7.033712187E-1,7.759562734E0,7.185934214E-1,7.824443840E0
3.338216625E0,4.795564681E-2,6.319882346E0,7.345892107E-1,6.362612193E0
3.348289625E0,-1.843757927E-1,5.259565802E0,5.814857161E-1,5.294823179E0
3.358362625E0,-2.957084598E-1,4.539902194E0,6.262613547E-1,4.592424055E0
3.368436625E0,-3.845174329E-1,3.634384251E0,7.141543615E-1,3.723790944E0
3.378509625E0,-3.418862241E-1,2.397456651E0,6.664128689E-1,2.511730617E0
3.388583625E0,-1.748519574E-1,8.240475172E-1,5.271256140E-1,9.937247760E-1
3.398656625E0,7.478514816E-2,-8.756228828E-1,4.475366767E-1,9.862034923E-1
3.408730625E0,3.144536099E-1,-2.436979735E0,3.821822011E-1,2.486727677E0
3.418803625E0,5.024725834E-1,-3.593450233E0,2.056618503E-1,3.634234455E0
3.428876625E0,5.931548582E-1,-4.210334408E0,-2.741010976E-1,4.260737017E0
3.438950625E0,5.891245186E-1,-4.027007825E0,-7.905961812E-1,4.145950078E0
3.449023625E0,4.210682318E-1,-2.922778106E0,-7.076325233E-1,3.036556290E0
3.459097625E0,9.592229370E-3,-1.348878391E0,-1.985587259E-1,1.363448016E0
3.469170625E0,-4.645082567E-1,2.116797316E-1,3.485159799E-2,5.116550236E-1
3.479244625E0,-8.314002447E-1,1.279263781E0,3.813539430E-2,1.526170533E0
3.489317625E0,-1.108795079E0,1.991520721E0,1.268392637E-2,2.279417072E0
3.499390625E0,-1.356018280E0,2.517287734E0,-7.132433653E-3,2.859296064E0
3.509464625E0,-1.488603603E0,2.814266648E0,4.345884562E-2,3.184011012E0
3.519537625E0,-1.577660644E0,2.943138696E0,3.727015257E-3,3.339325139E0
3.529611625E0,-1.489676128E0,2.930582385E0,-3.593453157E-1,3.307049612E0
3.539684625E0,-1.127660097E0,2.644865209E0,-5.435024956E-1,2.926144943E0
3.549758625E0,-5.358101910E-1,2.449982774E0,-4.494216728E-1,2.547839868E0
3.559831625E0,4.234655902E-1,2.216393525E0,-6.287280026E-1,2.342439383E0
3.569904625E0,1.247928113E0,1.849580730E0,-1.263151193E0,2.563947034E0
3.579978625E0,1.641183333E0,1.688561275E0,-2.211564310E0,3.230439383E0
3.590051625E0,1.494066656E0,2.003841974E0,-2.331234595E0,3.417933961E0
3.600125625E0,1.095273393E0,2.863197318E0,-1.779120320E0,3.544402883E0
3.610198625E0,1.013325542E0,3.659488102E0,-1.115777385E0,3.957731800E0
3.620272625E0,1.208295247E0,3.738534856E0,3.625566065E-3,3.928948132E0
3.630345625E0,1.278435669E0,3.154168217E0,1.431409794E0,3.692168590E0
3.640418625E0,1.007105567E0,2.163820040E0,-2.207809228E-1,2.396898622E0
3.650492625E0,6.015397654E-1,8.857724798E-1,-3.136290063E0,3.314024492E0
3.660565625E0,7.663578643E-1,-1.429784560E-1,-1.682551507E0,1.854380432E0
3.670639625E0,1.231622714E0,-1.019973096E0,9.568725756E-1,1.863557016E0
3.680712625E0,1.882747453E0,-1.948395166E0,1.619137868E-1,2.714258236E0
3.690786625E0,2.590806531E0,-3.254391832E0,-2.950763758E0,5.100034454E0
3.700859625E0,2.738049361E0,-4.332479820E0,-3.563959801E0,6.242523941E0
3.710933625E0,2.521551231E0,-4.632108107E0,-9.666578910E-1,5.361816260E0
3.721006625E0,2.396875437E0,-4.597982002E0,-1.090651607E0,5.298676371E0
3.731083208E0,2.159530230E0,-4.393610705E0,-2.207316600E0,5.370254409E0
3.741157208E0,1.590118722E0,-3.648102989E0,-2.330981118E0,4.612006715E0
3.751230208E0,7.242717987E-1,-2.945168849E0,-5.503425685E-1,3.082444830E0
3.761304208E0,-1.287483796E-1,-3.025455213E0,5.067314029E-1,3.070298374E0
3.771377208E0,-7.251632068E-1,-4.502750739E0,-1.660049082E0,4.853492439E0
3.781451208E0,-9.471786229E-1,-6.446181620E0,-2.362975912E0,6.930660862E0
3.791524208E0,-7.916293842E-1,-8.721743705E0,-9.581715345E-2,8.758120304E0
3.801597208E0,-5.922717825E-2,-1.195610473E1,8.363708165E-1,1.198546888E1
3.811671208E0,9.698694742E-1,-1.526312033E1,9.222968200E-1,1.532168791E1
3.821744208E0,2.035248538E0,-1.821518071E1,1.084128746E0,1.836056590E1
3.831818208E0,2.847173023E0,-2.007235931E1,7.668304655E-1,2.028778035E1
3.841891208E0,3.501072120E0,-2.044698107E1,-7.002740948E-1,2.075637070E1
3.851965208E0,4.178578765E0,-1.859374816E1,-1.865458260E0,1.914857503E1
3.862038208E0,4.355302379E0,-1.416093656E1,-1.294890318E0,1.487203832E1
3.872111208E0,3.481550021E0,-9.290125226E0,-8.010979266E-1,9.953359993E0
3.882185208E0,2.375685128E0,-5.447192427E0,-6.189768934E-1,5.974857116E0
3.892258208E0,1.235849520E0,-2.214102001E0,-1.948385811E-1,2.543134637E0
3.902332208E0,2.533991767E-1,3.593909240E-1,-4.411735904E-1,6.229021720E-1
3.912405208E0,-2.636775769E-1,2.530336381E0,-9.591408567E-1,2.718837849E0
3.922479208E0,-3.875576927E-1,4.364800304E0,-1.049199672E0,4.505829847E0
3.932552208E0,-2.315401285E-1,5.768232633E0,-6.315744272E-1,5.807323376E0
3.942626208E0,3.403401107E-2,6.965147737E0,-1.901982307E-1,6.967827256E0
3.952699208E0,2.752455073E-1,8.051171565E0,-1.286573093E-1,8.056902405E0
3.962772208E0,5.330270260E-1,9.000482814E0,-4.217771336E-1,9.026112377E0
3.972846208E0,7.352776473E-1,9.676020994E0,-4.055371499E-1,9.712387753E0
3.982919208E0,8.797806917E-1,1.009101952E1,-8.075472593E-2,1.012962045E1
3.992993208E0,9.394730891E-1,1.035974235E1,1.968699038E-1,1.040411597E1
4.003066208E0,9.708519526E-1,1.041000619E1,6.295346260E-1,1.047411553E1
4.013140208E0,1.000055944E0,1.032757916E1,1.417144196E0,1.047221566E1
4.023213208E0,1.029446828E0,1.022052132E1,2.147673100E0,1.049434688E1
4.033286208E0,1.103851404E0,1.011029779E1,2.499214575E0,1.047295006E1
4.043360208E0,1.189364887E0,1.003080957E1,2.623064450E0,1.043610064E1
4.053433208E0,1.262832666E0,1.001207977E1,2.678408346E0,1.044080260E1
4.063507208E0,1.308483633E0,9.997382212E0,2.794294313E0,1.046268900E1
4.073580208E0,1.348563665E0,1.000571099E1,2.894664109E0,1.050294990E1
4.083654208E0,1.392409304E0,1.001185875E1,2.951148212E0,1.053021344E1
4.093727208E0,1.410251205E0,1.001354509E1,2.946745843E0,1.053295802E1
4.103800208E0,1.426449747E0,1.001136173E1,2.832335421E0,1.050163066E1
4.113874208E0,1.382487602E0,1.002819704E1,2.735628029E0,1.048616558E1
4.123947208E0,1.329321502E0,1.007470579E1,2.714974494E0,1.051845421E1
4.134021208E0,1.223654129E0,1.016885649E1,2.743144040E0,1.060319815E1
4.144094208E0,1.130576688E0,1.037747228E1,2.794962650E0,1.080656980E1
4.154168208E0,8.681828856E-1,1.089584783E1,2.762165033E0,1.127398763E1
4.164241208E0,6.962553035E-1,1.116130323E1,2.729928456E0,1.151138439E1
4.174314208E0,7.224328494E-1,1.093481250E1,3.154688619E0,1.140368774E1
4.184388208E0,6.586315405E-1,1.080382669E1,3.350989589E0,1.133073686E1
4.194461208E0,6.463240287E-1,1.083064085E1,3.236964206E0,1.132247558E1
4.204535208E0,6.209247471E-1,1.075187651E1,3.022902904E0,1.118598847E1
4.214608208E0,4.907789560E-1,1.043168766E1,2.831932548E0,1.082038878E1
4.224682208E0,3.103009173E-1,9.935174854E0,2.682764522E0,1.029568898E1
4.234755208E0,8.183054052E-2,9.314877074E0,2.957723114E0,9.773523273E0
4.244828208E0,-4.213715561E-2,8.962545494E0,3.712189057E0,9.700997107E0
4.254902208E0,-1.759867924E-1,8.663437024E0,3.909779338E0,9.506444493E0
4.264975208E0,-9.123267326E-1,6.582549798E0,-2.619772175E0,7.143214134E0
4.275049208E0,-2.331809376E0,-2.065716040E0,-2.407239744E1,2.427312992E1
4.285122208E0,-4.062327493E-1,-7.069549187E0,-3.301757787E1,3.376838758E1
4.295196208E0,7.657648835E-1,-1.612350420E1,-2.153863050E1,2.691591328E1
4.305269208E0,-1.300318873E0,-2.577570072E1,-7.795174617E-1,2.582024834E1
4.315343208E0,-2.306255874E0,-3.391723281E1,9.565174742E0,3.531557823E1
4.325416208E0,-1.166344033E0,-4.570272164E1,-2.274011403E0,4.577412207E1
4.335489208E0,-1.449320692E0,-5.653349113E1,-1.918875498E1,5.971887865E1
4.345563208E0,-4.482914645E0,-4.774827882E1,-6.129783811E-1,4.796217673E1
4.355636208E0,-4.166604544E0,-2.765737214E1,1.666111241E1,3.255585191E1
4.365710208E0,-3.011826523E0,-1.569873790E1,1.338450467E1,2.084865549E1
4.375783208E0,-2.069404025E0,-8.485444272E0,6.428874446E0,1.084507373E1
4.385857208E0,-6.025975268E-1,-4.022010210E0,1.232102186E0,4.249442988E0
4.395930208E0,8.351146884E-1,-3.745656180E-1,-8.911837855E-1,1.277467997E0
4.406003208E0,2.237261945E0,2.314079449E0,-3.329670641E-1,3.235919000E0
4.416077208E0,3.210134549E0,4.920086986E0,7.244545242E-1,5.919210600E0
4.426150208E0,3.333864849E0,7.109765167E0,8.610481131E-1,7.899672108E0
4.436224208E0,2.927229007E0,8.591491714E0,4.168982899E-1,9.086044448E0
4.446297208E0,2.475728357E0,9.481450800E0,1.499857593E-1,9.800491615E0
4.456371208E0,2.178225679E0,9.942136549E0,3.474240124E-1,1.018388186E1
4.466444208E0,1.963451747E0,1.002924954E1,1.066891154E0,1.027517619E1
4.476517208E0,1.811406890E0,9.981501174E0,1.688208103E0,1.028404625E1
4.486591208E0,1.763511762E0,9.843387601E0,2.076924275E0,1.021351397E1
4.496664208E0,1.780641473E0,9.742659371E0,2.218784451E0,1.014953694E1
4.506738208E0,1.754940329E0,9.548106719E0,2.236381501E0,9.962306947E0
4.516811208E0,1.461801867E0,9.101915633E0,2.235917086E0,9.485834602E0
4.526885208E0,1.092154488E0,8.500242405E0,2.268236547E0,8.865202728E0
4.536958208E0,8.547041765E-1,8.037697241E0,2.232592067E0,8.385676091E0
4.547031208E0,7.530072092E-1,7.704228194E0,1.962765137E0,7.985900006E0
4.557105208E0,7.232747023E-1,7.227747946E0,1.666317443E0,7.452521753E0
4.567178208E0,7.474817365E-1,6.342393542E0,1.211755922E0,6.500233627E0
4.577252208E0,8.325649370E-1,5.029352735E0,8.181598096E-1,5.163035811E0
4.587325208E0,9.578223096E-1,3.259021073E0,5.800274205E-1,3.446022887E0
4.597399208E0,9.759404189E-1,1.363797562E0,4.685278885E-1,1.741241475E0
4.607472208E0,7.962320931E-1,-4.037326992E-1,4.712714021E-1,1.009496098E0
4.617546208E0,5.046500865E-1,-2.116595002E0,2.264930677E-1,2.187680329E0
4.627619208E0,3.689753875E-2,-3.687992109E0,-5.961154497E-1,3.736040799E0
4.637692208E0,-6.758438431E-1,-5.216957141E0,-1.795240216E0,5.558443500E0
4.647766208E0,-1.699641164E0,-6.648154389E0,-2.865445572E0,7.436229904E0
4.657839208E0,-2.854403690E0,-7.838667961E0,-3.140008600E0,8.913584567E0
4.667913208E0,-3.894654345E0,-8.553298286E0,-2.309364839E0,9.677830851E0
4.677986208E0,-4.602535521E0,-8.481523713E0,-1.251886532E0,9.730714137E0
4.688060208E0,-4.561844455E0,-7.412974289E0,-7.830896719E-1,8.739327324E0
4.698133208E0,-3.789230509E0,-5.442697088E0,-4.269624444E-1,6.645563660E0
4.708206208E0,-2.756928559E0,-2.830294451E0,2.041670828E-1,3.956375355E0
4.718280208E0,-1.798097751E0,-5.123698729E-1,7.827970187E-1,2.026931074E0
4.728349083E0,-1.002316989E0,1.340461324E0,6.418827760E-1,1.792620821E0
4.738423083E0,-4.152001123E-1,2.874422218E0,-9.785198450E-2,2.905902481E0
4.748496083E0,1.015324048E-1,3.981700090E0,-6.809139638E-1,4.040778175E0
4.758570083E0,4.828357694E-1,4.564313149E0,-7.076392476E-1,4.644011005E0
4.768643083E0,7.816997887E-1,4.708096182E0,-2.733022217E-1,4.780368012E0
4.778717083E0,9.279887921E-1,4.663195413E0,8.409465551E-1,4.828430984E0
4.788790083E0,8.773695923E-1,4.702029111E0,1.489325295E0,5.009685120E0
4.798863083E0,7.924408315E-1,4.764111924E0,9.544059277E-2,4.830510718E0
4.808937083E0,7.937795515E-1,4.650457254E0,-1.718434700E0,5.020941791E0
4.819010083E0,9.476307589E-1,4.291542293E0,-2.485165178E0,5.048899412E0
4.829084083E0,1.145015145E0,3.702869765E0,-2.468347416E0,4.595110787E0
4.839157083E0,1.379168576E0,2.746498588E0,-1.117915712E0,3.270335762E0
4.849231083E0,1.417424716E0,1.493678255E0,7.802400313E-1,2.202031349E0
4.859304083E0,1.291376288E0,1.027952206E-1,1.676300541E0,2.118537958E0
4.869377083E0,1.355469958E0,-1.238581778E0,9.516989592E-1,2.068118598E0
4.879451083E0,1.669811009E0,-2.140025965E0,-2.687544036E-1,2.727674626E0
4.889524083E0,2.092781924E0,-2.797179329E0,-1.197410071E0,3.692930985E0
4.899598083E0,2.584243324E0,-3.590138370E0,-1.886098931E0,4.808822751E0
4.909671083E0,2.615139719E0,-3.692354132E0,-1.051134954E0,4.645139339E0
4.919745083E0,2.491188979E0,-3.112088145E0,1.376188689E0,4.217227817E0
4.929818083E0,2.436956054E0,-2.363985434E0,1.021413850E0,3.545485608E0
4.939892083E0,2.680514513E0,-1.844694797E0,-1.457949721E0,3.565623976E0
4.949965083E0,2.879169572E0,-1.553081288E0,-1.817988809E0,3.742560918E0
4.960038083E0,2.422711214E0,-7.742982370E-1,-1.304160056E-1,2.546777517E0
4.970112083E0,1.838431990E0,-1.061562002E-2,-1.266989013E0,2.232757496E0
4.980185083E0,1.606873918E0,-5.366369873E-1,-7.482611704E-1,1.852003732E0
4.990259083E0,1.344414335E0,-1.602096158E0,1.965440092E0,2.870037763E0
5.000332083E0,7.173745693E-1,-2.771299553E0,-3.186814392E-1,2.880327298E0
5.010406083E0,-9.404880926E-2,-4.284116330E0,-1.283622588E0,4.473274511E0
5.020479083E0,-1.058678155E0,-6.403035600E0,-3.586243540E-1,6.499867365E0
5.030552083E0,-1.881145024E0,-9.344511933E0,-7.670161146E-1,9.562788484E0
5.040626083E0,-2.217134075E0,-1.264017166E1,-1.532637084E-1,1.283406065E1
5.050699083E0,-2.211807846E0,-1.611801250E1,-1.119527789E0,1.630753701E1
5.060773083E0,-1.958008574E0,-1.880449351E1,-5.557825255E-1,1.891432441E1
5.070846083E0,-1.337525876E0,-2.061762387E1,-3.519181824E-1,2.066395983E1
5.080920083E0,-5.948998866E-1,-2.185408077E1,-1.587774865E0,2.191975778E1
5.090993083E0,3.186244288E-1,-2.168446707E1,-2.385039504E0,2.181756282E1
5.101067083E0,1.545511483E0,-1.748106746E1,-2.059632597E0,1.766970322E1
5.111140083E0,2.249035314E0,-1.209401833E1,-1.729187876E0,1.242229970E1
5.121213083E0,2.367946338E0,-7.802856688E0,-1.546485775E0,8.299600027E0
5.131287083E0,2.098136220E0,-4.021038988E0,-9.748463318E-2,4.536566255E0
5.141360083E0,1.589144868E0,-1.013705465E0,5.631747217E-1,1.967268652E0
5.151434083E0,1.184861653E0,1.555192133E0,5.519756958E-2,1.955905540E0
5.161507083E0,1.113294657E0,3.633556870E0,5.528308511E-2,3.800686352E0
5.171581083E0,1.233765865E0,5.215495337E0,9.126053524E-1,5.436581495E0
5.181654083E0,1.468803176E0,6.411128731E0,1.912811351E0,6.849730042E0
5.191728083E0,1.731776292E0,7.538673053E0,2.377160965E0,8.092066163E0
5.201801083E0,1.964132216E0,8.640318888E0,2.018828241E0,9.087826655E0
5.211874083E0,2.153726430E0,9.363370957E0,1.475957830E0,9.720581502E0
5.221948083E0,2.171854552E0,9.897162105E0,9.511854275E-1,1.017720608E1
5.232021083E0,2.033081852E0,1.017047149E1,7.800198106E-1,1.040097798E1
5.242095083E0,2.034640135E0,1.018195308E1,8.118239129E-1,1.041494057E1
5.252168083E0,2.035181880E0,1.023068378E1,5.758795519E-1,1.044703274E1
5.262242083E0,1.965743124E0,1.028683576E1,3.892400097E-1,1.048020247E1
5.272315083E0,1.889821999E0,1.025463514E1,7.376077627E-1,1.045337430E1
5.282388083E0,1.865867272E0,1.013615067E1,1.236435850E0,1.038035571E1
5.292462083E0,1.843703986E0,1.006318912E1,1.521133271E0,1.034315551E1
5.302535083E0,1.843111956E0,1.002861102E1,1.685045052E0,1.033486708E1
5.312609083E0,1.843553420E0,1.003599722E1,1.816215348E0,1.036429292E1
5.322682083E0,1.839821289E0,1.012149521E1,1.908386032E0,1.046286504E1
5.332756083E0,1.790051397E0,1.023626670E1,2.032623138E0,1.058853138E1
5.342829083E0,1.569605374E0,1.088341665E1,2.550702817E0,1.128798050E1
5.352903083E0,1.493346426E0,1.088120991E1,2.696786145E0,1.130944155E1
5.362976083E0,1.541858581E0,1.060232930E1,2.744004750E0,1.105966891E1
5.373049083E0,1.487985844E0,1.085394902E1,3.105664686E0,1.138716226E1
5.383123083E0,1.454845288E0,1.102920177E1,3.381005978E0,1.162716938E1
5.393196083E0,1.386647311E0,1.119619941E1,3.626647800E0,1.185032685E1
5.403270083E0,1.302786691E0,1.131911023E1,3.751891651E0,1.199567424E1
5.413343083E0,1.177999654E0,1.127423285E1,3.538582008E0,1.187508198E1
5.423417083E0,1.024626310E0,1.119134856E1,3.429210716E0,1.174970757E1
5.433490083E0,1.009998623E0,1.125987092E1,3.313656871E0,1.178070932E1
5.443563083E0,9.291449328E-1,1.115362701E1,3.249284874E0,1.165437934E1
5.453637083E0,6.791404302E-1,1.071150851E1,3.235975734E0,1.121022681E1
5.463710083E0,4.339419003E-1,1.001262590E1,3.178126599E0,1.051387044E1
5.473784083E0,2.860606270E-1,9.339265226E0,3.238517811E0,9.888968766E0
5.483857083E0,2.290223540E-1,8.887262592E0,3.496280911E0,9.553003079E0
5.493931083E0,6.172255062E-2,8.330413535E0,3.258084641E0,8.945094458E0
5.504004083E0,-1.777033010E0,2.125915464E0,-1.495859150E1,1.521304777E1
5.514077083E0,-2.183699696E0,-9.272070193E-1,-2.808403177E1,2.818405751E1
5.524151083E0,-1.892096274E0,9.467203474E-1,-1.100031184E1,1.120192699E1
5.534224083E0,-3.313033558E0,-7.862364972E-1,1.127609226E-1,3.406915645E0
5.544298083E0,-4.584141350E0,-7.299012056E0,4.286655483E0,9.626284026E0
5.554371083E0,-4.684986817E0,-1.910997077E1,9.985180242E0,2.206453962E1
5.564445083E0,-2.685670003E0,-2.962182142E1,9.915367996E0,3.135250628E1
5.574518083E0,1.775798224E0,-3.698151997E1,-2.171120288E0,3.708773439E1
5.584592083E0,5.962820953E0,-4.480521146E1,-9.873313651E0,4.626601917E1
5.594665083E0,7.959379050E0,-4.641550658E1,-1.788457300E0,4.712695137E1
5.604738083E0,9.603866352E0,-3.793532013E1,4.561961692E0,3.939713513E1
5.614812083E0,9.927649487E0,-2.255299144E1,5.357335925E0,2.521699219E1
5.624885083E0,6.987319794E0,-8.529680797E0,3.246427925E0,1.149423276E1
5.634959083E0,3.886934266E0,-1.362041643E0,-2.482675141E0,4.809063452E0
5.645032083E0,1.563455418E0,2.703989330E0,-5.500942372E0,6.325845250E0
5.655106083E0,-3.109131208E-1,4.665581662E0,-2.244024689E0,5.186517716E0
5.665179083E0,-8.955879083E-1,5.782260688E0,-1.449180798E0,6.027996462E0
5.675253083E0,-5.323723206E-1,6.085195575E0,-1.461841481E0,6.280923976E0
5.685326083E0,-1.222591397E-1,5.954660579E0,7.186157870E-1,5.999111481E0
5.695399083E0,8.537928879E-2,5.773429638E0,3.646768069E0,6.829253016E0
5.705473083E0,4.289014542E-1,5.857216730E0,4.101118945E0,7.163108325E0
5.715546083E0,1.061466984E0,5.941409619E0,2.615644333E0,6.577891432E0
5.725620083E0,1.780948890E0,5.977944776E0,2.826498000E-1,6.243996605E0
5.735693625E0,2.191471815E0,6.096355571E0,-8.769759285E-1,6.537368488E0
5.745767625E0,1.566025270E0,6.205446489E0,-1.178739472E-1,6.401085497E0
5.755840625E0,2.249496952E-1,5.732986202E0,6.414642616E-1,5.773145551E0
5.765913625E0,-5.221244904E-1,5.142877012E0,8.295583718E-1,5.235452706E0
5.775987625E0,-9.604180348E-1,4.563438406E0,9.964744516E-1,4.768682650E0
5.786060625E0,-1.274646088E0,3.954732147E0,1.027443571E0,4.280218370E0
5.796134625E0,-1.482129858E0,3.286039887E0,8.467833189E-1,3.702945995E0
5.806207625E0,-1.539929731E0,2.503805809E0,6.774397675E-1,3.016513176E0
5.816281625E0,-1.548907838E0,1.720401118E0,4.727826150E-1,2.362714308E0
5.826354625E0,-1.572057696E0,1.128229031E0,2.930881763E-1,1.957081200E0
5.836428625E0,-1.602574899E0,8.341456586E-1,2.682784402E-1,1.826477103E0
5.846501625E0,-1.703389375E0,8.247819275E-1,3.408154162E-1,1.923006953E0
5.856574625E0,-1.836813920E0,9.966058677E-1,3.608503890E-1,2.120688953E0
5.866648625E0,-1.934195934E0,1.226899041E0,4.000045875E-1,2.325166411E0
5.876721625E0,-2.061205644E0,1.400109356E0,4.098010127E-1,2.525234996E0
5.886795625E0,-2.172398782E0,1.431739869E0,2.398891850E-1,2.612803541E0
5.896868625E0,-2.217158195E0,1.420453573E0,5.745130576E-2,2.633776655E0
5.906942625E0,-2.097877773E0,1.234479371E0,-2.687511876E-2,2.434286906E0
5.917015625E0,-1.904827270E0,9.010495001E-1,-2.245387821E-1,2.119121232E0
5.927088625E0,-1.608142764E0,4.919098806E-1,-4.828162909E-1,1.749631404E0
5.937162625E0,-1.127019242E0,-4.367987037E-2,-1.007117261E0,1.512073239E0
5.947235625E0,-5.289443904E-1,-5.242262721E-1,-1.595861857E0,1.761070816E0
5.957309625E0,-5.375345349E-3,-8.746212548E-1,-1.647347760E0,1.865139640E0
5.967382625E0,3.584144390E-1,-9.330524808E-1,-1.061164391E0,1.457778346E0
5.977456625E0,6.149589792E-1,-8.263676924E-1,-2.631609571E-1,1.063161229E0
5.987529625E0,6.111740765E-1,-5.138357699E-1,1.006049560E0,1.284405180E0
5.997603625E0,3.213357827E-1,1.239814371E-1,2.640678602E0,2.663045543E0
6.007676625E0,-9.842033386E-2,1.384416599E0,3.097479461E0,3.394211970E0
6.017749625E0,-5.615975815E-1,3.225177974E0,1.557217463E0,3.625202205E0
6.027823625E0,-6.206541672E-1,4.538899396E0,-8.987065208E-1,4.668457211E0
6.037896625E0,-4.130312338E-1,5.128663015E0,-2.861276507E0,5.887332365E0
6.047970625E0,-2.498869005E-1,5.140925796E0,-3.048400272E0,5.981998472E0
6.058043625E0,-2.233905351E-1,4.196206366E0,-1.570378522E0,4.485993747E0
6.068117625E0,9.906586647E-2,2.558655615E0,-4.337514272E-1,2.597050809E0
6.078190625E0,8.722007999E-1,9.474956882E-1,4.995638859E-1,1.381320524E0
6.088264625E0,1.757043572E0,-4.298522115E-1,3.445998073E-1,1.841391883E0
6.098337625E0,2.704739235E0,-1.766629205E0,-1.004182982E0,3.383042498E0
6.108410625E0,3.363090987E0,-2.527003468E0,-9.747856669E-1,4.318140179E0
6.118484625E0,4.127041406E0,-2.930308151E0,-6.064965963E-1,5.097746046E0
6.128557625E0,5.176266367E0,-3.072563891E0,-1.169060138E-1,6.020635298E0
6.138631625E0,6.072248670E0,-2.728136576E0,2.026028064E-1,6.660028603E0
6.148704625E0,6.427719036E0,-2.192147461E0,-1.701928595E-1,6.793382671E0
6.158778625E0,5.575363394E0,-1.743677130E0,-8.769455230E-1,5.907124542E0
6.168851625E0,3.959037452E0,-2.732520234E0,-2.788300040E0,5.560149412E0
6.178924625E0,2.939768946E0,-3.203233958E0,-1.284870676E0,4.533634513E0
6.188998625E0,2.149796078E0,-3.571160647E0,-5.970052497E-1,4.210846330E0
6.199071625E0,1.410001968E0,-4.299540115E0,-1.983991846E0,4.940685620E0
6.209145625E0,7.440608230E-1,-4.803910412E0,-1.060107214E0,4.975440590E0
6.219218625E0,4.967221391E-1,-5.252954355E0,3.829400003E-1,5.290265152E0
6.229292625E0,8.593062276E-1,-6.708124017E0,5.571206608E-1,6.785846922E0
6.239365625E0,1.723593698E0,-9.301047240E0,-6.271232343E-1,9.480165534E0
6.249439625E0,2.788198591E0,-1.270405366E1,-6.984522486E-1,1.302516281E1
6.259512625E0,3.877331969E0,-1.603407338E1,-2.140019533E-1,1.649760616E1
6.269585625E0,4.975985198E0,-1.810539456E1,9.022420397E-1,1.879839838E1
6.279659625E0,6.170858454E0,-1.955166008E1,1.016201642E0,2.052753204E1
6.289732625E0,7.395801601E0,-1.966111294E1,-2.733934383E-1,2.100790298E1
6.299806625E0,7.552964233E0,-1.505695336E1,-8.675548947E-1,1.686747653E1
6.309879625E0,6.014925492E0,-8.703112721E0,-1.268035519E0,1.065511210E1
6.319953625E0,4.465320373E0,-4.123023784E0,-1.058685025E0,6.169215926E0
6.330026625E0,3.028289359E0,-7.760898238E-1,-1.364237273E0,3.410864288E0
6.340100625E0,1.597864528E0,1.736488563E0,-1.733324050E0,2.927964453E0
6.350173625E0,2.778282590E-1,3.692246543E0,-1.803281307E-1,3.707073146E0
6.360246625E0,-7.809148000E-1,5.091860640E0,1.859052050E0,5.476581710E0
6.370320625E0,-1.395365510E0,6.023796887E0,3.495236306E0,7.102805832E0
6.380393625E0,-1.705917273E0,6.854421353E0,3.906800766E0,8.071947599E0
6.390467625E0,-1.828238539E0,7.711852378E0,3.047579323E0,8.491340471E0
6.400540625E0,-1.779221038E0,8.531014547E0,1.791245252E0,8.896763246E0
6.410614625E0,-1.616120413E0,9.213963488E0,7.087620592E-1,9.381434432E0
6.420687625E0,-1.464427851E0,9.891919491E0,-7.830064952E-1,1.003033994E1
6.430760625E0,-1.344321510E0,1.037917031E1,-1.653759817E0,1.059572075E1
6.440834625E0,-1.256932826E0,1.039252769E1,-8.681804006E-1,1.050420150E1
6.450907625E0,-1.236001694E0,1.021269774E1,3.899439414E-1,1.029460789E1
6.460981625E0,-1.216090463E0,1.012878435E1,1.101505647E0,1.026082176E1
6.471054625E0,-1.180320779E0,1.015348884E1,1.459489585E0,1.032553159E1
6.481128625E0,-1.141275631E0,1.017142692E1,1.679895848E0,1.037219773E1
6.491201625E0,-1.112013240E0,1.014359067E1,1.924514114E0,1.038425538E1
6.501275625E0,-1.070882829E0,1.018010887E1,2.097770623E0,1.044902140E1
6.511348625E0,-1.018298015E0,1.025348324E1,2.226702751E0,1.054177663E1
6.521421625E0,-1.033088547E0,1.044095667E1,2.159510057E0,1.071187807E1
6.531495625E0,-1.105215121E0,1.068729986E1,2.021291234E0,1.093277170E1
6.541568625E0,-1.321495150E0,1.102777855E1,2.230329194E0,1.132839872E1
6.551642625E0,-1.296609692E0,1.097203003E1,2.203357304E0,1.126594084E1
6.561715625E0,-1.251396097E0,1.099806534E1,2.087977852E0,1.126423921E1
6.571789625E0,-1.318962867E0,1.130896180E1,2.293300344E0,1.161428028E1
6.581862625E0,-1.379694533E0,1.132490365E1,2.453381760E0,1.166945079E1
6.591935625E0,-1.450669207E0,1.143675621E1,2.627589903E0,1.182404594E1
6.602009625E0,-1.552573165E0,1.189397339E1,2.858388275E0,1.233075301E1
6.612082625E0,-1.593096416E0,1.213744326E1,2.708813868E0,1.253766955E1
6.622156625E0,-1.712277289E0,1.219388409E1,2.478666582E0,1.256051316E1
6.632229625E0,-1.853163904E0,1.192818194E1,2.250539949E0,1.227927811E1
6.642303625E0,-2.038577212E0,1.113773194E1,2.029978150E0,1.150329001E1
6.652376625E0,-2.282420430E0,1.017875115E1,1.993614170E0,1.062030675E1
6.662450625E0,-2.408186876E0,9.478017315E0,2.226419892E0,1.002941283E1
6.672523625E0,-2.384294861E0,9.159078598E0,2.323031243E0,9.745258175E0
6.682596625E0,-2.434164740E0,8.537402630E0,1.146476875E0,8.951358046E0
6.692670625E0,-2.548263359E0,3.217024031E0,-1.372793737E1,1.432826418E1
6.702743625E0,-2.190613444E0,-1.414070753E0,-2.419463465E1,2.433472271E1
6.712817625E0,-2.903977261E0,-7.454267911E0,-1.663983206E1,1.846302264E1
6.722890625E0,-2.816344456E0,-1.466334336E1,3.125723560E0,1.525501827E1
6.732964833E0,-6.516865101E-1,-2.314937001E1,1.610633093E1,2.820872070E1
6.743037833E0,2.255241549E0,-2.887358598E1,1.313005606E1,3.179887504E1
6.753110833E0,8.141341478E0,-3.506418755E1,-4.264977808E0,3.624870654E1
6.763184833E0,1.551555516E1,-3.805836659E1,-6.084931866E0,4.154754043E1
6.773257833E0,2.065120092E1,-3.354730287E1,3.550873733E0,3.955379038E1
6.783331833E0,2.251912904E1,-2.693002529E1,3.184949130E0,3.524884872E1
6.793404833E0,1.931788489E1,-1.995523257E1,-2.772596465E0,2.791199159E1
6.803478833E0,1.214252332E1,-1.171173555E1,-9.623980190E0,1.942232265E1
6.813551833E0,6.183238179E0,-5.442606456E0,-3.351970167E0,8.893261686E0
6.823625833E0,2.599881409E0,-3.972399509E-1,3.257452265E0,4.186666715E0
6.833698833E0,-1.838329518E-1,2.696920631E0,4.255410594E0,5.041398096E0
6.843771833E0,-1.772854736E0,4.698895589E0,2.630485736E0,5.669399340E0
6.853845833E0,-2.520429151E0,5.846910428E0,-6.556459522E-1,6.400687172E0
6.863918833E0,-2.727531974E0,5.936504390E0,-3.256952913E0,7.299949131E0
6.873992833E0,-2.613744573E0,5.556490921E0,-3.939368588E0,7.295538151E0
6.884065833E0,-2.292947319E0,5.061224738E0,-2.460322405E0,6.076741692E0
6.894139833E0,-1.801658120E0,4.364051861E0,-7.499742584E-1,4.780521103E0
6.904212833E0,-1.351578051E0,3.448852683E0,2.595286667E-1,3.713314313E0
6.914286833E0,-1.069492288E0,2.729512426E0,1.029562383E0,3.107096802E0
6.924359833E0,-1.031110287E0,2.487700238E0,1.574777967E0,3.119577943E0
6.934432833E0,-1.153673482E0,2.715883151E0,1.863850275E0,3.490117712E0
6.944506833E0,-1.289800756E0,3.007281482E0,1.932461358E0,3.800228256E0
6.954579833E0,-1.397473139E0,3.197677934E0,1.777775899E0,3.916447687E0
6.964653833E0,-1.545463243E0,3.345208447E0,1.533811058E0,3.991422372E0
6.974726833E0,-1.662183900E0,3.439328154E0,1.430704766E0,4.079062343E0
6.984800833E0,-1.530207858E0,3.429739890E0,1.464279624E0,4.030975889E0
6.994873833E0,-8.062102935E-1,3.278438507E0,1.274549025E0,3.608685259E0
7.004947833E0,-1.323221979E-1,3.213442027E0,8.013269913E-1,3.314489972E0
7.015020833E0,1.615614921E-1,3.035710645E0,6.299110405E-1,3.104581961E0
7.025093833E0,1.517913795E-1,2.795454401E0,8.639074016E-1,2.929836502E0
7.035167833E0,-7.945342809E-2,2.484237517E0,1.196947117E0,2.758701015E0
7.045240833E0,-5.876510203E-1,2.134316744E0,1.263730652E0,2.549050185E0
7.055314833E0,-1.193250069E0,1.847762246E0,9.728690958E-1,2.405108173E0
7.065387833E0,-1.729247663E0,1.614952431E0,5.805769857E-1,2.436275533E0
7.075461833E0,-2.173839536E0,1.384711883E0,2.518582162E-1,2.589679109E0
7.085534833E0,-2.575678907E0,1.163209414E0,1.920576453E-2,2.826224838E0
7.095607833E0,-2.921045576E0,9.857329702E-1,6.257353976E-2,3.083519450E0
7.105681833E0,-2.995354624E0,7.473402339E-1,2.282274250E-1,3.095602447E0
7.115754833E0,-2.870713036E0,6.070240152E-1,4.601876394E-1,2.970057938E0
7.125828833E0,-2.572466739E0,5.885590929E-1,6.096260992E-1,2.708436986E0
7.135901833E0,-1.989416893E0,8.192235643E-1,3.738557661E-1,2.183729597E0
7.145975833E0,-1.213003133E0,1.004964463E0,-1.528813004E-2,1.575298035E0
7.156048833E0,-5.843207386E-1,9.493673819E-1,-4.882974708E-1,1.217030637E0
7.166121833E0,-5.411978155E-2,9.455298543E-1,-1.122944902E0,1.468999969E0
7.176195833E0,2.054311046E-1,1.239679300E0,-1.439666501E0,1.910928136E0
7.186268833E0,-2.411684096E-3,1.721488116E0,-6.077326977E-1,1.825613919E0
7.196342833E0,-6.082343888E-1,2.362562807E0,5.456691813E-1,2.499881386E0
7.206415833E0,-1.156283095E0,2.987231964E0,8.025901361E-1,3.302225966E0
7.216489833E0,-1.477563913E0,3.559015396E0,2.511569157E-1,3.861717947E0
7.226562833E0,-1.642555090E0,3.830975828E0,-1.179842988E0,4.332019447E0
7.236636833E0,-1.664325151E0,3.649041467E0,-3.223348087E0,5.145430470E0
7.246709833E0,-1.511705221E0,2.860105310E0,-2.027882801E0,3.818083775E0
7.256782833E0,-9.729749304E-1,1.677325850E0,8.244283171E-1,2.107079560E0
7.266856833E0,-5.774417818E-2,4.409847254E-1,1.924280226E0,1.975007925E0
7.276929833E0,9.824105823E-1,-6.890294605E-1,1.999517373E0,2.331943797E0
7.287003833E0,2.092125574E0,-1.799929683E0,1.185114838E0,3.003536826E0
7.297076833E0,3.279480481E0,-2.434954845E0,-9.822747807E-1,4.201054756E0
7.307150833E0,4.423040911E0,-2.314887534E0,-2.828844926E-1,5.000201879E0
7.317223833E0,5.815821367E0,-1.915912129E0,-4.366963774E-2,6.123430778E0
7.327297833E0,7.193307846E0,-1.279481882E0,-1.965368464E0,7.565938464E0
7.337370833E0,7.654984113E0,-5.250115532E-1,-8.811458704E-1,7.723395429E0
7.347443833E0,7.033651961E0,-6.800048679E-1,4.365268081E-1,7.079916820E0
7.357517833E0,6.258881854E0,-1.674444342E0,-1.015560641E0,6.558104096E0
7.367590833E0,5.683729842E0,-2.058866612E0,-2.694390248E0,6.618417896E0
7.377664833E0,4.584228181E0,-2.286837856E0,-3.056945393E0,5.965709558E0
7.387737833E0,3.188320050E0,-2.377110679E0,-9.136873797E-1,4.080547089E0
7.397811833E0,2.213062951E0,-2.585545206E0,-8.987940829E-1,3.520017392E0
7.407884833E0,1.588086814E0,-3.243555772E0,-1.827612741E0,4.047572372E0
7.417957833E0,1.017227828E0,-3.907909983E0,-1.571514051E0,4.333147736E0
7.428031833E0,9.198804581E-1,-5.105911499E0,-8.755421913E-1,5.261471888E0
7.438104833E0,1.336727877E0,-7.229179929E0,-1.382496958E0,7.480586989E0
7.448178833E0,2.161457472E0,-9.960087501E0,-1.373811504E0,1.028409449E1
7.458251833E0,3.336825002E0,-1.257534241E1,8.146004632E-1,1.303599677E1
7.468325833E0,4.677630142E0,-1.566495035E1,-6.861390357E-1,1.636281394E1
7.478398833E0,5.850646799E0,-1.765173132E1,-7.924417086E-1,1.861294309E1
7.488472833E0,6.888971965E0,-1.852512524E1,8.878856635E-1,1.978450254E1
7.498545833E0,7.721643541E0,-1.923568590E1,-3.585955565E-1,2.073074967E1
7.508618833E0,8.053984076E0,-1.872926323E1,-1.827275941E0,2.046926716E1
7.518692833E0,6.927448398E0,-1.424764843E1,-2.192728089E0,1.599353255E1
7.528765833E0,4.701129517E0,-8.097841117E0,-2.467197561E0,9.683114855E0
7.538839833E0,2.517079573E0,-3.254605840E0,-1.822242658E0,4.499857449E0
7.548912833E0,6.732925567E-1,1.476404411E-1,-5.488932630E-1,8.811381168E-1
7.558986833E0,-7.887917304E-1,2.615136795E0,-5.435874995E-1,2.785070954E0
7.569059833E0,-1.738274887E0,4.302216386E0,-1.689471833E-1,4.643189482E0
7.579132833E0,-2.229957896E0,5.591665431E0,6.211555660E-1,6.051881422E0
7.589206833E0,-2.403667856E0,6.596674917E0,1.644467422E0,7.210964722E0
7.599279833E0,-2.423304998E0,7.529111102E0,2.222234309E0,8.215731642E0
7.609353833E0,-2.334291373E0,8.471331432E0,1.861040103E0,8.981973208E0
7.619426833E0,-2.209156865E0,9.262102445E0,1.237648562E0,9.602014878E0
7.629500833E0,-2.062285040E0,9.920341637E0,3.281294433E-1,1.013774466E1
7.639573833E0,-1.870097440E0,1.034082895E1,-2.064334635E-1,1.051059573E1
7.649647833E0,-1.703322863E0,1.036388803E1,-1.518529214E-2,1.050293837E1
7.659720833E0,-1.577619714E0,1.024713316E1,6.477335000E-1,1.038807878E1
7.669793833E0,-1.443257276E0,1.017367109E1,1.095651269E0,1.033378085E1
7.679867833E0,-1.304663793E0,1.016897928E1,1.282631192E0,1.033225193E1
7.689940833E0,-1.166243900E0,1.019149106E1,1.416080879E0,1.035528367E1
7.700014833E0,-1.053028356E0,1.022602004E1,1.615488475E0,1.040625569E1
7.710087833E0,-9.643881480E-1,1.033618041E1,1.813502240E0,1.053828546E1
7.720161833E0,-8.846410435E-1,1.042949847E1,1.939816132E0,1.064518270E1
7.730234833E0,-7.785599801E-1,1.054285493E1,2.059108686E0,1.077023093E1
7.740311500E0,-7.237869184E-1,1.071480283E1,2.241160723E0,1.097058196E1
7.750385500E0,-8.254862246E-1,1.122153891E1,2.683392513E0,1.156740932E1
7.760458500E0,-7.586977194E-1,1.172849835E1,3.160174477E0,1.217045597E1
7.770532500E0,-6.757989657E-1,1.177397449E1,3.196162920E0,1.221878214E1
7.780605500E0,-6.699849330E-1,1.176157956E1,3.067208134E0,1.217338898E1
7.790679500E0,-6.147363465E-1,1.205552494E1,2.917401592E0,1.241872837E1
7.800752500E0,-4.734749253E-1,1.243431225E1,2.682640561E0,1.272921286E1
7.810826500E0,-4.465658927E-1,1.267051637E1,2.384686332E0,1.290070289E1
7.820899500E0,-4.818163804E-1,1.272035687E1,2.129988342E0,1.290645095E1
7.830972500E0,-5.243350303E-1,1.267198636E1,1.986751732E0,1.283749773E1
7.841046500E0,-5.775251046E-1,1.255851763E1,1.900509979E0,1.271463088E1
7.851119500E0,-6.644428689E-1,1.234416689E1,1.804720892E0,1.249307641E1
7.861193500E0,-8.048741316E-1,1.196093570E1,1.808189168E0,1.212358665E1
7.871266500E0,-9.810878690E-1,1.134336915E1,1.864782614E0,1.153741615E1
7.881340500E0,-1.134475465E0,1.066820987E1,1.908283267E0,1.089675555E1
7.891413500E0,-1.288135469E0,9.993486797E0,2.094420314E0,1.029153379E1
7.901486500E0,-1.401095343E0,9.499146813E0,2.233182343E0,9.858192619E0
7.911560500E0,-1.469396961E0,9.042230179E0,1.288588043E0,9.251027683E0
7.921633500E0,-1.468113059E0,5.018485685E0,-1.624538591E1,1.706613951E1
7.931707500E0,-2.649977430E0,-1.349222792E0,-3.156948217E1,3.170922559E1
7.941780500E0,-4.753039051E0,-4.947322147E0,-1.865078892E1,1.987257668E1
7.951854500E0,-5.010469152E0,-5.803914097E0,1.663743353E-1,7.669282912E0
7.961927500E0,-3.058040284E0,-1.294327027E1,1.700099586E1,2.158503453E1
7.972001500E0,4.308085236E-1,-2.782245541E1,2.504619274E1,3.743776691E1
7.982074500E0,5.828419193E0,-3.904485502E1,1.486406658E1,4.218307302E1
7.992147500E0,1.512758421E1,-4.648860613E1,-1.357685701E1,5.073820406E1
8.002221500E0,2.150685205E1,-4.525638730E1,-1.562558105E1,5.248660838E1
8.012294500E0,2.194926642E1,-3.389060459E1,3.663730842E0,4.054338787E1
8.022368500E0,1.886090043E1,-2.029656027E1,2.571458094E0,2.782618049E1
8.032441500E0,1.160443915E1,-1.250475599E1,-3.437801738E-1,1.706312149E1
8.042515500E0,7.278616383E0,-9.216630988E0,2.932793802E0,1.210478512E1
8.052588500E0,4.588827016E0,-6.572246420E0,3.529525548E0,8.758384953E0
8.062661500E0,2.521538952E0,-3.166301774E0,1.662731931E0,4.375877408E0
8.072735500E0,1.208097027E0,2.694607472E-1,3.378519742E-1,1.283063317E0
8.082808500E0,4.941429323E-1,3.025721846E0,-1.069901301E0,3.247130845E0
8.092882500E0,1.862680247E-1,4.787912430E0,-1.767528069E0,5.107147608E0
8.102955500E0,2.807657540E-2,5.552276832E0,-1.531105113E0,5.759587588E0
8.113029500E0,-2.009392735E-1,6.266732326E0,-1.464617447E0,6.438743270E0
8.123102500E0,-3.713228984E-1,6.877672806E0,-1.794771416E0,7.117687009E0
8.133176500E0,-5.112314200E-1,7.403894148E0,-1.921005639E0,7.666111712E0
8.143249500E0,-7.789843418E-1,7.820838046E0,-1.369214423E0,7.977911536E0
8.153322500E0,-1.074031481E0,8.077210386E0,-4.807839449E-1,8.162476612E0
8.163396500E0,-1.322978150E0,8.175956410E0,4.389925059E-1,8.293928431E0
8.173469500E0,-1.614349437E0,8.257935542E0,1.183392175E0,8.497060702E0
8.183543500E0,-1.821787306E0,8.036892664E0,1.494418513E0,8.375191901E0
8.193616500E0,-1.890985303E0,7.675066375E0,1.330790030E0,8.015826307E0
8.203690500E0,-1.868245920E0,7.280394521E0,1.032614776E0,7.586882132E0
8.213763500E0,-1.802867763E0,6.682504442E0,8.295643651E-1,6.970966563E0
8.223837500E0,-1.758080868E0,5.941571002E0,7.303358730E-1,6.239110898E0
8.233910500E0,-1.783286607E0,5.042504877E0,3.837177531E-1,5.362294833E0
8.243983500E0,-1.856406770E0,3.819126445E0,-1.956771449E-1,4.250913131E0
8.254057500E0,-1.941100326E0,2.336152103E0,-7.579546845E-1,3.130490765E0
8.264130500E0,-1.956040839E0,7.496007675E-1,-1.139112527E0,2.384444259E0
8.274204500E0,-1.757824176E0,-7.991962659E-1,-9.808575618E-1,2.165812102E0
8.284277500E0,-1.405342614E0,-2.181069911E0,-6.828168670E-1,2.682963416E0
8.294351500E0,-9.835082509E-1,-3.439880716E0,-3.818056405E-1,3.598033263E0
8.304424500E0,-6.156587447E-1,-4.648151697E0,-2.914299059E-1,4.697795364E0
8.314497500E0,-2.785138451E-1,-5.850556751E0,-2.865791289E-1,5.864188935E0
8.324571500E0,1.105547681E-2,-6.597957796E0,-6.997838058E-2,6.598338145E0
8.334644500E0,1.667159589E-1,-6.630489365E0,3.259144449E-1,6.640587599E0
8.344718500E0,1.548012337E-1,-5.646680714E0,5.260775006E-1,5.673246341E0
8.354791500E0,-2.742409922E-1,-4.252161881E0,7.802897327E-1,4.331851896E0
8.364865500E0,-7.175703049E-1,-2.478793759E0,1.282908350E0,2.881870830E0
8.374938500E0,-7.660636032E-1,-9.342382962E-1,1.650788116E0,2.045667627E0
8.385012500E0,-5.797675118E-1,3.145269924E-1,1.891012931E0,2.002744992E0
8.395085500E0,-3.751705125E-1,1.482592519E0,1.852498491E0,2.402204019E0
8.405158500E0,-2.242521223E-1,2.358175641E0,1.691006727E0,2.910461324E0
8.415232500E0,-2.242877904E-1,3.152179579E0,1.375658201E0,3.446589125E0
8.425305500E0,-1.693885750E-1,3.724892718E0,9.070611687E-1,3.837483317E0
8.435379500E0,-2.074118489E-1,4.089817446E0,2.577721632E-1,4.103178391E0
8.445452500E0,-2.441861576E-1,4.034377071E0,-3.020040107E-1,4.053027468E0
8.455526500E0,-2.567936316E-1,3.810647398E0,-5.273054159E-1,3.855519104E0
8.465599500E0,-1.574856904E-1,3.435832103E0,-4.386651349E-1,3.467300259E0
8.475672500E0,-1.502035680E-1,2.946190358E0,-4.154853103E-1,2.979131884E0
8.485746500E0,-2.974715415E-1,2.393848919E0,-8.030487040E-1,2.542417980E0
8.495819500E0,-6.689106533E-1,1.812207667E0,-1.422391195E0,2.398902832E0
8.505893500E0,-1.022163463E0,1.587937710E0,-2.078683118E0,2.808431559E0
8.515966500E0,-1.157387049E0,1.775508787E0,-2.014390204E0,2.923994550E0
8.526040500E0,-1.150822965E0,2.288594944E0,-1.437223680E0,2.937289945E0
8.536113500E0,-1.118507743E0,3.088650751E0,-7.506895190E-1,3.369622795E0
8.546187500E0,-9.381521299E-1,4.000516430E0,-1.108520406E0,4.255946266E0
8.556260500E0,-6.728048989E-1,4.964660311E0,-2.826430026E0,5.752323454E0
8.566333500E0,-2.310188127E-1,5.760636515E0,-4.872435687E0,7.548439062E0
8.576407500E0,1.712333715E-1,5.750595676E0,-4.979741449E0,7.608974727E0
8.586480500E0,2.516413575E-1,4.310208945E0,-2.050211563E0,4.779601654E0
8.596554500E0,9.628039911E-1,2.190204431E0,8.156994474E-1,2.527716868E0
8.606627500E0,1.944848830E0,2.038409543E-1,2.492860991E0,3.168334582E0
8.616701500E0,2.960010252E0,-1.444853420E0,2.508206716E0,4.140092152E0
8.626774500E0,4.079199488E0,-2.919334096E0,9.665631661E-1,5.108485527E0
8.636847500E0,5.504599221E0,-4.073201414E0,-1.070379895E0,6.930894276E0
8.646921500E0,6.692213743E0,-4.637754763E0,-2.005919489E-1,8.144613628E0
8.656994500E0,7.902558732E0,-5.155466067E0,-2.068599887E0,9.659625789E0
8.667068500E0,8.056651576E0,-4.213747428E0,-2.051228394E0,9.320560065E0
8.677141500E0,6.949392414E0,-1.632486477E0,3.242912579E-1,7.145924142E0
8.687215500E0,5.177576144E0,-1.351740019E0,-2.306428367E-1,5.356089238E0
8.697288500E0,2.729284385E0,-4.182640826E0,-2.491931283E0,5.581505088E0
8.707362500E0,1.047227553E0,-5.940737774E0,-4.196877334E0,7.348661796E0
8.717435500E0,-4.549940693E-1,-6.716925831E0,-3.446117356E0,7.563057388E0
8.727508500E0,-1.332104776E0,-6.974805583E0,-1.306650092E0,7.220093525E0
8.737578875E0,-8.599578997E-1,-9.258512254E0,-2.278264522E0,9.573404096E0
8.747651875E0,8.250044140E-1,-1.354085805E1,-2.679314665E0,1.382802213E1
8.757725875E0,3.119260340E0,-1.832692802E1,-1.526465347E-1,1.859111015E1
8.767798875E0,5.598449371E0,-2.216832417E1,1.953809103E-1,2.286515702E1
8.777872875E0,8.087999668E0,-2.369633260E1,-6.863344789E-2,2.503870260E1
8.787945875E0,1.005314360E1,-2.356154492E1,5.953984348E-1,2.562355546E1
8.798019875E0,1.111752396E1,-2.118451376E1,1.411493154E0,2.396612767E1
8.808092875E0,1.030042001E1,-1.458787218E1,3.081212215E-1,1.786056006E1
8.818165875E0,7.989077643E0,-8.096303884E0,-6.668794768E-1,1.139386793E1
8.828239875E0,5.348769754E0,-3.565085390E0,-5.299927231E-1,6.449811161E0
8.838312875E0,2.996954422E0,-3.616631520E-1,-6.312244713E-1,3.083987740E0
8.848386875E0,1.099121591E0,2.200617737E0,-7.700431450E-1,2.577547893E0
8.858459875E0,-2.013031165E-1,4.282021272E0,-8.408296108E-4,4.286750497E0
8.868533875E0,-9.830758493E-1,5.801008031E0,1.273020855E0,6.019859998E0
8.878606875E0,-1.391038863E0,6.917954859E0,2.498377254E0,7.485651438E0
8.888679875E0,-1.645432651E0,7.993326230E0,2.157874006E0,8.441394023E0
8.898753875E0,-1.798163824E0,8.964221891E0,1.357097969E0,9.242963926E0
8.908826875E0,-1.862787836E0,9.699613339E0,8.231746741E-1,9.911109625E0
8.918900875E0,-1.854086448E0,1.022871677E1,2.870187664E-1,1.039935879E1
8.928973875E0,-1.823706947E0,1.038747803E1,1.037997723E-1,1.054686595E1
8.939047875E0,-1.745893809E0,1.037406218E1,4.468092100E-1,1.052943255E1
8.949120875E0,-1.651247561E0,1.028185276E1,1.136520017E0,1.047543758E1
8.959194875E0,-1.529889915E0,1.019791598E1,1.553593504E0,1.042840862E1
8.969267875E0,-1.376687457E0,1.022193400E1,1.829729433E0,1.047526195E1
8.979340875E0,-1.288511152E0,1.035315020E1,1.969150589E0,1.061722817E1
8.989414875E0,-1.235348560E0,1.051739849E1,2.088356459E0,1.079365507E1
8.999487875E0,-1.187826630E0,1.068148188E1,2.180340324E0,1.096626059E1
9.009561875E0,-1.139339837E0,1.081108776E1,2.176630704E0,1.108672337E1
9.019634875E0,-1.176028849E0,1.095161506E1,2.288160350E0,1.124973751E1
9.029708875E0,-1.362021763E0,1.130886941E1,2.500916115E0,1.166191288E1
9.039781875E0,-1.405900292E0,1.142106462E1,2.604384643E0,1.179830886E1
9.049855875E0,-1.570802737E0,1.172316920E1,2.873575541E0,1.217199876E1
9.059928875E0,-1.675056692E0,1.195143748E1,3.074063702E0,1.245361556E1
9.070001875E0,-1.824638262E0,1.218664641E1,3.330439550E0,1.276461841E1
9.080075875E0,-1.976123540E0,1.239256313E1,3.526812440E0,1.303530173E1
9.090148875E0,-2.140961812E0,1.246637136E1,3.702533257E0,1.317963903E1
9.100222875E0,-2.328938247E0,1.251801046E1,3.850233340E0,1.330221170E1
9.110295875E0,-2.516524673E0,1.248385220E1,3.924086597E0,1.332583647E1
9.120369875E0,-2.739832470E0,1.228103801E1,3.812300406E0,1.314778350E1
9.130442875E0,-3.037198176E0,1.201421085E1,3.500077801E0,1.287697091E1
9.140515875E0,-3.419687356E0,1.176007098E1,3.100579655E0,1.263357136E1
9.150589875E0,-3.818527690E0,1.149691353E1,2.679598839E0,1.240727304E1
9.160662875E0,-4.013840773E0,1.091900280E1,2.290117266E0,1.185665117E1
9.170736875E0,-4.079780701E0,1.024257234E1,1.993255005E0,1.120392628E1
9.180809875E0,-4.077688859E0,9.679568499E0,1.852714838E0,1.066555882E1
9.190883875E0,-4.038869195E0,9.260747645E0,1.687601455E0,1.024313965E1
9.200956875E0,-3.865987493E0,8.746159923E0,1.234279981E0,9.641816207E0
9.211029875E0,-3.640016582E0,6.278853604E0,-2.436603467E0,7.655766438E0
9.221103875E0,-3.542078936E0,3.196248289E0,-8.972766427E0,1.016232570E1
9.231176875E0,-2.947411549E0,-6.475767946E-1,-1.963759310E1,1.986810644E1
9.241250875E0,-2.653465586E0,-6.337162038E0,-2.476113396E1,2.569658065E1
9.251323875E0,-2.496212907E0,-8.527796824E0,-1.189564920E1,1.484792468E1
9.261397875E0,-3.020821295E0,-7.386570017E0,3.730768585E0,8.809393404E0
9.271470875E0,-6.227033240E-1,-1.777286925E1,1.598273132E1,2.391046510E1
9.281544875E0,3.355081763E0,-2.872918782E1,1.731191453E1,3.370942288E1
9.291617875E0,7.816356155E0,-3.309410389E1,6.463437338E0,3.461345343E1
9.301690875E0,1.411203980E1,-3.799672525E1,-8.479937949E0,4.141026617E1
9.311764875E0,1.732610923E1,-3.851324723E1,-3.101114968E0,4.234478938E1
9.321837875E0,1.760332924E1,-3.342149652E1,7.219614469E0,3.845772305E1
9.331911875E0,1.861492678E1,-2.531322104E1,3.101938548E0,3.157367070E1
9.341984875E0,1.559301089E1,-1.423310289E1,-2.195504201E0,2.122600869E1
9.352058875E0,1.023415235E1,-6.685471904E0,-1.750583569E0,1.234900610E1
9.362131875E0,6.185617411E0,-2.312479650E0,-8.942157861E-1,6.664011312E0
9.372205875E0,3.415285572E0,1.324766813E0,-1.398644775E0,3.921146498E0
9.382278875E0,1.711678827E0,4.412832842E0,-1.938464255E0,5.114741613E0
9.392351875E0,6.159369260E-1,6.250476481E0,-1.827620927E0,6.541256209E0
9.402425875E0,-2.476319218E-1,6.567275702E0,-1.218259195E0,6.683905084E0
9.412498875E0,-8.521811029E-1,6.389403986E0,-1.047684220E0,6.530569513E0
9.422572875E0,-1.292892179E0,6.188574348E0,-8.659621862E-1,6.381215649E0
9.432645875E0,-1.595200244E0,6.200493312E0,-6.372459340E-1,6.434039440E0
9.442719875E0,-1.844852087E0,6.387956800E0,-8.173272391E-1,6.699066735E0
9.452792875E0,-2.115016547E0,6.576021967E0,-7.815913960E-1,6.951851912E0
9.462866875E0,-2.285953757E0,6.775922483E0,-2.408058822E-1,7.155186758E0
9.472939875E0,-2.528738629E0,7.141766979E0,2.908412375E-2,7.576292003E0
9.483012875E0,-2.740608395E0,7.466886787E0,2.132817956E-1,7.956809774E0
9.493086875E0,-2.798766264E0,7.437993355E0,7.549258999E-1,7.982903661E0
9.503159875E0,-2.754079795E0,7.194146921E0,1.548539171E0,7.857396452E0
9.513233875E0,-2.701856266E0,6.735220599E0,1.984912198E0,7.523503189E0
9.523306875E0,-2.460078576E0,5.765756337E0,2.410582480E0,6.716162642E0
9.533380875E0,-1.903659289E0,4.656753536E0,3.027882392E0,5.871741136E0
9.543453875E0,-1.405537619E0,3.219408526E0,3.486088922E0,4.949034575E0
9.553526875E0,-7.847013107E-1,1.507380036E0,3.665495532E0,4.040273284E0
9.563600875E0,8.570556343E-3,-4.930331308E-1,3.202117724E0,3.239863121E0
9.573673875E0,1.365623355E0,-2.911519293E0,4.147571126E-1,3.242513717E0
9.583747875E0,3.058431755E0,-5.443105223E0,-4.424633693E0,7.652371043E0
9.593820875E0,3.938485951E0,-6.879033453E0,-5.621736492E0,9.717854393E0
9.603894875E0,3.415339659E0,-7.314315974E0,-5.161809711E0,9.581651353E0
9.613967875E0,1.305311665E0,-6.297241927E0,-5.065998405E0,8.186784123E0
9.624041875E0,-1.003587736E0,-4.292387801E0,-1.334414134E0,4.605696740E0
9.634114875E0,-1.718866517E0,-2.843743047E0,1.472045896E0,3.634321909E0
9.644187875E0,-1.741375666E0,-1.525943191E0,1.928996444E0,3.013622258E0
9.654261875E0,-1.556541963E0,-3.889082533E-1,1.575917004E0,2.248907939E0
9.664334875E0,-1.410588151E0,4.274466670E-1,1.194257544E0,1.897029432E0
9.674408875E0,-1.330107952E0,1.082496788E0,1.006047367E0,1.988244895E0
9.684481875E0,-1.128883334E0,1.450044578E0,9.058027017E-1,2.048776560E0
9.694555875E0,-8.823077121E-1,1.598330551E0,9.967211310E-1,2.080043380E0
9.704628875E0,-8.019353941E-1,1.687228110E0,1.270805783E0,2.259377439E0
9.714701875E0,-7.847393176E-1,1.766735625E0,1.363190621E0,2.365472307E0
9.724775875E0,-6.483237764E-1,1.934432015E0,9.265720848E-1,2.240733534E0
9.734849083E0,-4.556787783E-1,2.149189721E0,2.391242961E-1,2.209941184E0
9.744923083E0,-3.417525056E-1,2.466370180E0,2.315263510E-2,2.490042708E0
9.754996083E0,-2.610676539E-1,2.771808261E0,4.023805305E-2,2.784366437E0
9.765070083E0,-1.702829066E-1,2.986266589E0,2.485921808E-1,3.001430073E0
9.775143083E0,-5.446590748E-1,3.071393278E0,1.608621943E0,3.509668750E0
9.785217083E0,-1.165991519E0,3.096301832E0,2.488153982E0,4.139750173E0
9.795290083E0,-1.331380599E0,2.898793997E0,1.667462328E0,3.599446006E0
9.805363083E0,-1.053370053E0,2.564111068E0,-2.272587606E-1,2.781348698E0
9.815437083E0,-1.263861045E0,2.540764305E0,-1.979617251E0,3.460016251E0
9.825510083E0,-1.953883948E0,2.947265076E0,-3.092780347E0,4.697799930E0
9.835584083E0,-2.904489185E0,3.908118728E0,-4.226957750E0,6.447993583E0
9.845657083E0,-3.597754954E0,4.792550442E0,-4.208020957E0,7.322555621E0
9.855731083E0,-3.334222113E0,5.264801983E0,-2.964207091E0,6.900847825E0
9.865804083E0,-2.326234640E0,5.334998977E0,-2.139282492E0,6.200815371E0
9.875877083E0,-7.405258888E-1,4.298528547E0,-2.345635117E0,4.952547866E0
9.885951083E0,1.053212762E0,2.215874292E0,-1.770985966E0,3.025846542E0
9.896024083E0,2.216271903E0,-3.224365211E-1,7.689378020E-1,2.367929856E0
9.906098083E0,2.688087242E0,-2.238216503E0,2.660640997E0,4.394819297E0
9.916171083E0,3.684338769E0,-4.007763469E0,2.226146096E0,5.881517375E0
9.926245083E0,5.719636424E0,-5.502611167E0,3.702924728E-1,7.945444418E0
9.936318083E0,7.450929735E0,-4.824226563E0,-5.339610091E-1,8.892391704E0
9.946392083E0,8.445978490E0,-2.040856018E0,-7.405978096E-1,8.720557955E0
9.956465083E0,7.765654364E0,2.109749082E0,-8.317100009E-1,8.090004352E0
9.966538083E0,6.280469774E0,5.492890756E0,1.184274593E0,8.427256716E0
9.976612083E0,5.569591023E0,6.477937263E0,2.044029594E0,8.784194461E0
9.986685083E0,5.500587446E0,4.703420749E0,-4.346472499E0,8.442182904E0
9.996759083E0,5.034401806E0,4.167369068E-1,-7.218685931E0,8.810692241E0
1.000683208E1,4.328607209E0,-3.256568751E0,-2.502420311E0,5.966924485E0
1.001690608E1,4.222243432E0,-7.171182566E0,-2.131265520E0,8.590430241E0
1.002697908E1,3.507082765E0,-1.036304603E1,-3.584422717E0,1.151262085E1
1.003705208E1,3.038259446E0,-1.310056739E1,-4.153190739E0,1.407497352E1
1.004712608E1,3.073842677E0,-1.468958332E1,-1.929965620E0,1.513132956E1
1.005719908E1,3.985236486E0,-1.570631823E1,1.544991373E0,1.627751641E1
1.006727308E1,5.386393663E0,-1.737134329E1,-2.357652900E-1,1.818879847E1
1.007734608E1,6.465196180E0,-1.810239143E1,-6.255080871E-1,1.923243608E1
1.008742008E1,6.690013436E0,-1.705666018E1,3.457939549E-1,1.832499685E1
1.009749308E1,6.201358116E0,-1.470455921E1,2.943957599E-1,1.596144019E1
1.010756708E1,5.786940215E0,-1.203084501E1,5.543639910E-1,1.336178237E1
1.011764008E1,5.839651694E0,-1.035006053E1,1.577729495E0,1.198809890E1
1.012771308E1,6.170723383E0,-8.716390579E0,1.699095473E0,1.081389001E1
1.013778708E1,6.322775549E0,-6.895384022E0,1.159860713E0,9.427040274E0
1.014786008E1,5.504102792E0,-4.563050736E0,1.436887758E0,7.292545920E0
1.015793408E1,3.820808104E0,-1.736514291E0,1.677076174E0,4.519584156E0
1.016800708E1,2.036897453E0,5.225364268E-1,1.330949074E0,2.488658472E0
1.017808108E1,3.493962783E-1,2.303110657E0,6.788827872E-1,2.426371426E0
1.018815408E1,-1.054757597E0,4.104480509E0,2.766996002E-1,4.246861960E0
1.019822708E1,-2.034068278E0,5.814596960E0,-7.066710949E-1,6.200512527E0
1.020830108E1,-2.769664671E0,7.425321270E0,-1.910919192E0,8.152180721E0
1.021837408E1,-3.477872707E0,8.984833326E0,-3.402152141E0,1.021750790E1
1.022844808E1,-4.189306067E0,1.042186200E1,-4.380749170E0,1.205638653E1
1.023852108E1,-4.495858042E0,1.106453883E1,-3.508231158E0,1.244766825E1
1.024859508E1,-4.083300140E0,1.082141160E1,-1.620725387E0,1.167917120E1
1.025866808E1,-3.151073871E0,1.039165996E1,-4.077438891E-1,1.086655964E1
1.026874108E1,-2.603605501E0,1.015235682E1,5.405750140E-1,1.049482405E1
1.027881508E1,-2.219389200E0,9.997613761E0,1.122184837E0,1.030229431E1
1.028888808E1,-1.918173540E0,9.947381501E0,1.393345882E0,1.022600612E1
1.029896208E1,-1.676881608E0,9.969694476E0,1.737689581E0,1.025798737E1
1.030903508E1,-1.494518792E0,1.005006095E1,2.259962883E0,1.040887812E1
1.031910908E1,-1.364695110E0,1.016580541E1,2.862730125E0,1.064900071E1
1.032918208E1,-1.232232579E0,1.028525116E1,3.279672854E0,1.086558984E1
1.033925608E1,-1.115990224E0,1.042097322E1,3.393032824E0,1.101611496E1
1.034932908E1,-1.000324258E0,1.060325900E1,3.222985268E0,1.112732601E1
1.035940208E1,-8.952848764E-1,1.096480287E1,3.018153795E0,1.140779073E1
1.036947608E1,-6.778618634E-1,1.123631131E1,2.577584807E0,1.154807915E1
1.037954908E1,-3.991579838E-1,1.142035710E1,2.369194719E0,1.167034563E1
1.038962308E1,-1.305341559E-1,1.167721476E1,2.231813071E0,1.188929659E1
1.039969608E1,1.421072940E-1,1.184875570E1,2.070842440E0,1.202919758E1
1.040977008E1,3.270554925E-1,1.196953345E1,2.017794453E0,1.214282466E1
1.041984308E1,3.957394092E-1,1.199083368E1,1.939318095E0,1.215309248E1
1.042991608E1,3.973636195E-1,1.193260477E1,1.887897681E0,1.208756022E1
1.043999008E1,3.684877297E-1,1.166889768E1,1.803284523E0,1.181316179E1
1.045006308E1,2.253929324E-1,1.144540541E1,1.733554722E0,1.157813970E1
1.046013708E1,7.212979048E-2,1.128598107E1,1.750578014E0,1.142116872E1
1.047021008E1,-6.447505429E-2,1.111432436E1,1.928865466E0,1.128064205E1
1.048028408E1,-1.748988448E-1,1.097714985E1,2.148112810E0,1.118672415E1
1.049035708E1,-2.494426217E-1,1.082913811E1,2.243816089E0,1.106196929E1
1.050043008E1,-3.396363983E-1,1.054202462E1,2.113818744E0,1.075722388E1
1.051050408E1,-4.268647594E-1,1.025872235E1,1.930865506E0,1.044757576E1
1.052057708E1,-5.559102141E-1,9.941481661E0,1.803416086E0,1.011901198E1
1.053065108E1,-8.104177306E-1,9.500389931E0,1.757945213E0,9.695594727E0
1.054072408E1,-1.125879400E0,8.978094410E0,1.454832570E0,9.164623367E0
1.055079808E1,-2.426817275E0,4.026535955E0,-1.185765048E1,1.275563832E1
1.056087108E1,-3.253646312E0,-2.898306339E0,-2.355770447E1,2.395729187E1
1.057094508E1,-3.138656723E0,-8.670484673E0,-2.398577913E1,2.569719967E1
1.058101808E1,-1.828568907E0,-1.145708347E1,-1.056726120E1,1.569316524E1
1.059109108E1,-6.631596974E-1,-1.834480179E1,1.300210261E1,2.249502625E1
1.060116508E1,1.637196117E0,-3.184777456E1,2.782133274E1,4.232006275E1
1.061123808E1,7.077142966E0,-4.031159348E1,1.059076935E1,4.227617435E1
1.062131208E1,1.308902615E1,-4.892228278E1,-3.010902078E1,5.891744640E1
1.063138508E1,7.211919533E0,-4.531897121E1,-2.131134543E0,4.593868380E1
1.064145908E1,6.061023771E0,-3.668188057E1,7.147837558E0,3.786011032E1
1.065153208E1,6.847505266E0,-2.047493309E1,7.234306183E0,2.276941808E1
1.066160508E1,7.609121477E0,-2.512074941E0,5.777353120E0,9.878616261E0
1.067167908E1,4.656858201E0,4.533543931E0,3.624103092E0,7.441335371E0
1.068175208E1,1.905579222E0,2.924902984E0,-5.170913534E-1,3.528976212E0
1.069182608E1,1.570220939E0,2.163691401E0,-5.074566915E0,5.735711259E0
1.070189908E1,1.745009125E0,1.364797436E0,-3.146258104E0,3.847943470E0
1.071197308E1,1.773496175E0,9.962316459E-1,-4.315128207E-2,2.034607630E0
1.072204608E1,2.134042509E0,1.209618765E0,7.786491501E-1,2.573637404E0
1.073212008E1,2.352695338E0,1.587591555E0,9.730456817E-1,3.000406672E0
1.074219262E1,2.182458040E0,2.093930025E0,1.654944463E0,3.447681427E0
1.075226562E1,1.648862481E0,2.805839056E0,1.969517502E0,3.804008344E0
1.076233962E1,1.044807682E0,3.737952474E0,1.378592333E0,4.118789702E0
1.077241262E1,4.537518284E-1,4.719328684E0,4.107271385E-1,4.758849727E0
1.078248663E1,-2.256417131E-1,5.556341817E0,2.096986949E-1,5.564873953E0
1.079255962E1,-8.365830705E-1,5.870839573E0,5.709737380E-1,5.957569936E0
1.080263362E1,-1.398816390E0,6.096975961E0,3.896188362E-1,6.267503969E0
1.081270663E1,-1.844520111E0,6.405534115E0,-1.913594147E-1,6.668563576E0
1.082277962E1,-2.171570085E0,6.646381513E0,-4.052774604E-1,7.003881329E0
1.083285362E1,-2.259587930E0,6.558904828E0,3.817776104E-1,6.947713602E0
1.084292662E1,-2.059982553E0,6.012006562E0,1.542468592E0,6.539645279E0
1.085300062E1,-1.809979000E0,5.288249903E0,2.203867035E0,6.008214454E0
1.086307362E1,-1.544385748E0,4.521879905E0,2.262368428E0,5.286855031E0
1.087314762E1,-1.379715730E0,3.901517222E0,1.703539503E0,4.475209377E0
1.088322062E1,-1.111854196E0,3.170575504E0,8.310332588E-1,3.461124826E0
1.089329362E1,-7.931584311E-1,2.327971848E0,4.911661148E-5,2.459380659E0
1.090336762E1,-5.470970714E-1,1.423868347E0,-4.172701728E-1,1.581401490E0
1.091344062E1,-2.777544379E-1,5.269615996E-1,-2.421682835E-1,6.430252971E-1
1.092351462E1,-6.493888468E-2,-3.554516548E-1,8.759245992E-2,3.718001838E-1
1.093358762E1,1.399434587E-1,-1.391912729E0,2.465314758E-1,1.420486883E0
1.094366162E1,3.224634182E-1,-2.468693279E0,3.445541990E-1,2.513393475E0
1.095373462E1,4.423146746E-1,-3.480674400E0,5.925510236E-1,3.558349796E0
1.096380762E1,5.267236179E-1,-4.444365706E0,8.605522692E-1,4.557452634E0
1.097388162E1,5.758805752E-1,-5.283232992E0,8.891007149E-1,5.388384671E0
1.098395463E1,4.485890293E-1,-5.945762286E0,7.965813911E-1,6.015634895E0
1.099402862E1,-1.348736304E-1,-5.815205655E0,3.092884719E-1,5.824986443E0
1.100410162E1,-1.301571201E0,-4.167569627E0,-7.738193500E-1,4.434131321E0
1.101417562E1,-2.171998540E0,-2.060790346E0,-9.757973814E-1,3.149065740E0
1.102424862E1,-2.271791800E0,-1.009774967E0,-2.424968970E-1,2.497896758E0
1.103432262E1,-1.947852545E0,-1.683699900E-1,2.459689736E-2,1.955270569E0
1.104439562E1,-1.624712311E0,6.153516197E-1,-4.188362399E-2,1.737844052E0
1.105446862E1,-1.462775720E0,1.270901093E0,3.384134531E-2,1.938052536E0
1.106454262E1,-1.384841984E0,1.855941916E0,2.422503272E-2,2.315792428E0
1.107461562E1,-1.284174857E0,2.325782651E0,-2.105936844E-2,2.656842769E0
1.108468963E1,-1.100588658E0,2.658098627E0,-1.197626710E-1,2.879431681E0
1.109476262E1,-7.536637053E-1,2.692781972E0,-2.455070071E-1,2.807019312E0
1.110483662E1,-2.153941754E-1,2.111831276E0,-8.072313270E-2,2.124321589E0
1.111490963E1,2.814712206E-1,1.305585607E0,6.467840949E-2,1.337147382E0
1.112498262E1,7.267404932E-1,6.424253976E-1,-3.774960598E-2,9.707147721E-1
1.113505662E1,1.043804008E0,-4.376523972E-2,-3.046399355E-3,1.044725554E0
1.114512963E1,1.241758862E0,-6.877395648E-1,1.113484911E-1,1.423850156E0
1.115520362E1,1.345005196E0,-1.242781248E0,1.462482190E-1,1.837099004E0
1.116527662E1,1.278851260E0,-1.471137239E0,3.155964847E-1,1.974666164E0
1.117535062E1,9.600087297E-1,-1.381001240E0,6.603319108E-1,1.806881130E0
1.118542362E1,4.824870926E-1,-1.146206295E0,8.322576658E-1,1.496407528E0
1.119549662E1,1.874032617E-2,-8.589653349E-1,6.086647439E-1,1.052922322E0
1.120557062E1,-3.089700910E-1,-5.540523344E-1,3.414692445E-1,7.204427468E-1
1.121564362E1,-5.975126418E-1,-1.211776972E-1,2.116283127E-1,6.453618630E-1
1.122571762E1,-9.042909041E-1,3.472193599E-1,4.170783842E-1,1.054636289E0
1.123579062E1,-1.148220369E0,7.167435086E-1,8.343006098E-1,1.590027918E0
1.124586463E1,-1.236954205E0,1.010436872E0,1.107380857E0,1.943535629E0
1.125593762E1,-1.154127811E0,1.188718477E0,1.305890247E0,2.109599952E0
1.126601062E1,-1.014995946E0,1.260101870E0,1.587795038E0,2.266972999E0
1.127608462E1,-5.747938702E-1,1.191966605E0,1.606709611E0,2.081511027E0
1.128615762E1,7.289139032E-2,1.126632156E0,1.165775538E0,1.622851125E0
1.129623162E1,7.572138423E-1,1.230210904E0,5.376522101E-2,1.445573371E0
1.130630462E1,1.141600736E0,1.549047879E0,-1.210050874E0,2.273109036E0
1.131637862E1,9.853257117E-1,2.150281981E0,-2.218287438E0,3.242742437E0
1.132645162E1,1.756313547E-1,2.958881155E0,-2.859521173E0,4.118578080E0
1.133652462E1,-6.044807687E-1,3.333881806E0,-2.061225525E0,3.965957080E0
1.134659862E1,-9.678089154E-1,3.390469404E0,-5.220359051E-1,3.564331405E0
1.135667162E1,-9.328788185E-1,3.358805562E0,1.431949492E-1,3.488888432E0
1.136674562E1,-8.110269374E-1,3.327223581E0,-6.500349641E-1,3.485789280E0
1.137681862E1,-1.178828496E0,3.908607556E0,-1.563868232E0,4.371788363E0
1.138689262E1,-2.302835545E0,4.991874422E0,-1.523833077E0,5.704728656E0
1.139696562E1,-3.506741872E0,5.567729269E0,-2.340376132E0,6.983853393E0
1.140703862E1,-4.495072761E0,5.150211174E0,-4.636651686E0,8.260078276E0
1.141711263E1,-4.674411835E0,3.924841765E0,-6.879087832E0,9.196540561E0
1.142718562E1,-3.719058366E0,1.817484194E0,-6.261039476E0,7.505681798E0
1.143725962E1,-1.611820078E0,-6.248165077E-1,-8.617107488E-1,1.931555085E0
1.144733263E1,9.850897765E-1,-2.921620358E0,5.222170519E0,6.064431738E0
1.145740662E1,2.736986337E0,-4.356232964E0,7.754382101E0,9.305820846E0
1.146747962E1,3.601856191E0,-4.407306638E0,7.154883453E0,9.142760909E0
1.147755362E1,5.636341667E0,-4.788300685E0,6.314832106E-1,7.422596708E0
1.148762662E1,7.601760417E0,-3.996095350E0,-4.372828531E0,9.637280159E0
1.149769962E1,8.226712580E0,-2.585855108E-1,-5.159239275E0,9.714083397E0
1.150777362E1,7.003920039E0,3.767648143E0,-1.746505866E0,8.142502759E0
1.151784662E1,6.117533017E0,4.742424016E0,3.308112834E0,8.417743539E0
1.152792062E1,5.106383954E0,2.041372327E0,2.290649217E0,5.957300723E0
1.153799362E1,4.314796085E0,-2.105106978E0,-2.673256949E0,5.495019869E0
1.154806763E1,4.301193123E0,-5.651711658E0,-4.775887631E0,8.558692050E0
1.155814062E1,3.610089070E0,-8.239291111E0,-2.975685468E0,9.474880743E0
1.156821362E1,3.199606930E0,-1.057960585E1,-1.873996218E0,1.121059348E1
1.157828763E1,3.784586357E0,-1.337990759E1,-2.024439375E0,1.405145458E1
1.158836062E1,4.882282982E0,-1.603170760E1,-2.372052984E0,1.692568967E1
1.159843462E1,6.089713719E0,-1.796484738E1,-1.635151492E0,1.903927716E1
1.160850763E1,6.555861352E0,-1.760845140E1,1.452201762E0,1.884531158E1
1.161858162E1,6.724368167E0,-1.681872762E1,2.580028943E0,1.829599069E1
1.162865462E1,6.707302483E0,-1.612614364E1,2.527166605E0,1.764729402E1
1.163872762E1,6.102346628E0,-1.432118067E1,9.879584205E-1,1.559842659E1
1.164880162E1,5.512467234E0,-1.166169508E1,-6.904275298E-2,1.289911602E1
1.165887462E1,5.281263649E0,-8.852882134E0,-8.419208474E-1,1.034282836E1
1.166894862E1,5.182849163E0,-6.261004393E0,-8.388262086E-1,8.171029976E0
1.167902162E1,4.938041446E0,-4.332949351E0,-6.558517742E-1,6.602184862E0
1.168909562E1,4.293751956E0,-2.801285244E0,-7.651175237E-1,5.183522905E0
1.169916862E1,3.122599100E0,-8.431673276E-1,-6.586409692E-1,3.300812659E0
1.170924162E1,1.762429589E0,1.359662411E0,1.461098593E-2,2.225994926E0
1.171931562E1,4.763406457E-1,3.229286812E0,1.316890029E0,3.519856968E0
1.172938862E1,-5.610132985E-1,4.722259308E0,2.114992865E0,5.204581032E0
1.173946300E1,-1.270551576E0,6.002011331E0,2.095742662E0,6.483099462E0
1.174953600E1,-1.836195430E0,7.434079814E0,3.100345401E-1,7.663763942E0
1.175961000E1,-2.382406941E0,9.146790090E0,-2.979161053E0,9.910349759E0
1.176968300E1,-2.884796055E0,1.067740404E1,-5.642172511E0,1.241624403E1
1.177975600E1,-2.758532742E0,1.133383469E1,-5.418770281E0,1.286189655E1
1.178983000E1,-2.511158390E0,1.110781992E1,-1.981060052E0,1.155915995E1
1.179990300E1,-2.113598743E0,1.053365141E1,1.119789745E0,1.080180729E1
1.180997700E1,-1.665445916E0,1.019537712E1,2.110582603E0,1.054390742E1
1.182005000E1,-1.374600732E0,1.005314009E1,2.374530888E0,1.042082289E1
1.183012400E1,-1.166794707E0,9.961103747E0,2.474619140E0,1.032999214E1
1.184019700E1,-1.001935312E0,9.930810492E0,2.643513333E0,1.032535879E1
1.185027000E1,-8.760985538E-1,9.969818437E0,3.017149243E0,1.045313436E1
1.186034400E1,-8.051686120E-1,1.004158716E1,3.481005353E0,1.065829102E1
1.187041700E1,-8.311960307E-1,1.016535635E1,3.847472285E0,1.090084398E1
1.188049100E1,-8.526446410E-1,1.027548514E1,4.111974593E0,1.110049246E1
1.189056400E1,-7.614045417E-1,1.033203006E1,4.215739574E0,1.118494712E1
1.190063800E1,-6.211073995E-1,1.040723227E1,4.143753041E0,1.121904395E1
1.191071100E1,-4.955240446E-1,1.046433384E1,3.992456628E0,1.121104530E1
1.192078400E1,-3.811987726E-1,1.063143674E1,3.737576205E0,1.127573658E1
1.193085800E1,-2.262792789E-1,1.072065238E1,3.329754548E0,1.122812786E1
1.194093100E1,-9.477240220E-3,1.084206631E1,3.031237232E0,1.125783686E1
1.195100500E1,2.375225244E-1,1.103310654E1,2.777706932E0,1.137987314E1
1.196107800E1,3.509074911E-1,1.115396498E1,2.624007021E0,1.146383372E1
1.197115200E1,2.858937987E-1,1.117723806E1,2.418212074E0,1.143941151E1
1.198122500E1,1.007315920E-1,1.111100431E1,2.208331969E0,1.132878165E1
1.199129800E1,-1.246040194E-1,1.103597284E1,2.042624216E0,1.122410515E1
1.200137200E1,-3.430714913E-1,1.100031067E1,1.984356858E0,1.118312144E1
1.201144500E1,-4.934130536E-1,1.108649279E1,2.013785748E0,1.127870169E1
1.202151900E1,-5.557472961E-1,1.129272057E1,2.039930989E0,1.148893866E1
1.203159200E1,-6.042659932E-1,1.127814931E1,1.853596306E0,1.144541867E1
1.204166600E1,-7.544027933E-1,1.081181983E1,1.667832896E0,1.096568457E1
1.205173900E1,-9.963749758E-1,1.022426821E1,1.749852082E0,1.042067205E1
1.206181200E1,-1.191441964E0,9.722823862E0,1.843163996E0,9.967451596E0
1.207188600E1,-1.387688116E0,9.207311695E0,1.656476141E0,9.457493334E0
1.208195900E1,-2.818364669E0,5.116910112E0,-8.445353422E0,1.026888226E1
1.209203300E1,-3.854330776E0,-1.196199989E0,-2.291438445E1,2.326705342E1
1.210210600E1,-3.775189297E0,-5.389174014E0,-2.465867671E1,2.552147307E1
1.211218000E1,-3.082996493E0,-7.749178079E0,-1.124167438E1,1.399749517E1
1.212225300E1,-3.277937400E0,-1.052828133E1,5.971277196E0,1.253976605E1
1.213232600E1,-3.082121457E0,-2.388553446E1,1.825775897E1,3.022191244E1
1.214240000E1,-4.147682954E-1,-3.546833540E1,1.560001585E1,3.874964959E1
1.215247300E1,5.453154248E0,-4.564270582E1,-1.367082879E1,4.795711673E1
1.216254700E1,7.092129965E0,-4.667805592E1,-1.597934812E1,4.984454612E1
1.217262000E1,5.500288069E0,-4.014402632E1,7.037935631E0,4.112576511E1
1.218269400E1,6.914614930E0,-2.993791956E1,1.222969478E1,3.307047568E1
1.219276700E1,8.768662348E0,-1.630228750E1,8.677553372E0,2.044392207E1
1.220284100E1,8.825338240E0,-5.492377371E0,2.574223827E0,1.070884833E1
1.221291400E1,7.265533238E0,1.004747531E0,-5.872838151E0,9.396154468E0
1.222298700E1,4.886478944E0,4.263670371E0,-8.212960514E0,1.046466827E1
1.223306100E1,2.177675602E0,4.625748090E0,3.316917863E-1,5.123459365E0
1.224313400E1,1.632278901E0,5.287733009E0,-1.500021315E0,5.733630501E0
1.225320800E1,1.886373750E0,5.594058697E0,-3.061599777E0,6.650209908E0
1.226328100E1,1.854703183E0,4.665218550E0,2.822427607E0,5.759365035E0
1.227335500E1,2.186229201E0,4.234080536E0,4.769435813E0,6.741999264E0
1.228342800E1,3.058086477E0,4.587610211E0,9.835578791E-1,5.600486269E0
1.229350100E1,3.422897185E0,5.215347403E0,-1.745915444E0,6.477985367E0
1.230357500E1,2.398814667E0,5.463397400E0,2.601648438E-1,5.972496020E0
1.231364800E1,7.797419947E-1,5.245918985E0,1.819124923E0,5.606860000E0
1.232372200E1,-2.308521670E-1,5.080187259E0,1.421782061E0,5.280441225E0
1.233379500E1,-8.517747214E-1,4.908566802E0,9.160599605E-1,5.065443127E0
1.234386900E1,-1.231353742E0,4.794300513E0,7.518420053E-1,5.006677127E0
1.235394200E1,-1.495283316E0,4.710742632E0,7.948459375E-1,5.005871393E0
1.236401500E1,-1.650902283E0,4.614604467E0,1.050052269E0,5.012251240E0
1.237408900E1,-1.771825626E0,4.634087974E0,1.353262049E0,5.142514518E0
1.238416200E1,-1.839874937E0,4.678627385E0,1.604582394E0,5.277251051E0
1.239423600E1,-1.872596248E0,4.734281768E0,1.743949756E0,5.381579816E0
1.240430900E1,-1.869348266E0,4.801689640E0,1.816513556E0,5.463552675E0
1.241438200E1,-1.787772445E0,4.586088765E0,1.717324898E0,5.213208732E0
1.242445600E1,-1.559282114E0,4.098266673E0,1.167604766E0,4.537670253E0
1.243452900E1,-1.100168682E0,3.418450670E0,2.428372415E-1,3.599325776E0
1.244460300E1,-6.653710413E-1,2.392582996E0,-7.887297499E-1,2.605622121E0
1.245467600E1,-3.511495659E-1,1.133865162E0,-1.982910111E0,2.311036290E0
1.246475000E1,-7.631727397E-2,-3.350255764E-1,-2.407950064E0,2.432342487E0
1.247482300E1,1.310048202E-1,-1.924910409E0,-1.559355351E0,2.480732041E0
1.248489600E1,3.941444349E-1,-3.539813724E0,-3.629284529E-1,3.580132414E0
1.249497000E1,5.264201474E-1,-5.039235114E0,4.118954488E-1,5.083371575E0
1.250504300E1,4.606345859E-1,-6.346691245E0,6.183559191E-1,6.393358900E0
1.251511700E1,2.846991760E-1,-7.278860797E0,4.376313472E-1,7.297560504E0
1.252519000E1,-1.639433554E-1,-7.537397191E0,3.646779764E-1,7.547994692E0
1.253526400E1,-9.847956616E-1,-6.231991094E0,4.261965322E-1,6.323699785E0
1.254533700E1,-1.515864930E0,-3.713326925E0,6.897071528E-1,4.069685405E0
1.255541000E1,-1.522674890E0,-1.544666560E0,6.257947469E-1,2.257465984E0
1.256548400E1,-1.358112899E0,1.094054979E-1,-6.636005044E-2,1.364127511E0
1.257555700E1,-1.167828422E0,1.417900679E0,-6.695155478E-1,1.955125732E0
1.258563100E1,-9.694367802E-1,2.387495334E0,-8.514610183E-1,2.713839993E0
1.259570400E1,-6.918013331E-1,2.952282572E0,-6.784758210E-1,3.107232033E0
1.260577800E1,-4.291634095E-1,3.255505142E0,-2.577955520E-1,3.293774963E0
1.261585100E1,-1.797621202E-1,3.350011935E0,1.418792160E-1,3.357830266E0
1.262592500E1,9.043186784E-2,3.138446808E0,4.083531690E-1,3.166193077E0
1.263599800E1,3.429716501E-1,2.519868695E0,5.934865781E-1,2.611435259E0
1.264607100E1,4.957801527E-1,1.784823986E0,7.081562877E-1,1.983148998E0
1.265614500E1,4.188512599E-1,1.142491559E0,8.688178933E-1,1.495181552E0
1.266621800E1,2.227985045E-1,6.292796874E-1,1.008275156E0,1.209235663E0
1.267629200E1,-1.147837669E-2,2.798068106E-1,1.138614271E0,1.172546827E0
1.268636500E1,-2.578589943E-1,1.915927917E-1,1.260887736E0,1.301167530E0
1.269643900E1,-5.332830244E-1,2.928490251E-1,1.225993892E0,1.368653484E0
1.270651200E1,-7.316615099E-1,4.848177928E-1,1.095080581E0,1.403416665E0
1.271658500E1,-8.569951156E-1,6.743710756E-1,7.898056376E-1,1.346480568E0
1.272665900E1,-7.287156826E-1,6.158492178E-1,4.731764980E-1,1.064984884E0
1.273673575E1,-3.630647296E-1,3.677559507E-1,2.843699046E-1,5.898531002E-1
1.274680975E1,4.959608316E-3,2.676457715E-1,1.286539471E-1,2.970028532E-1
1.275688275E1,4.139887154E-1,3.824476647E-1,-2.153400886E-1,6.033442024E-1
1.276695575E1,7.204485968E-1,4.744904405E-1,-7.486446746E-1,1.142215482E0
1.277702975E1,8.740172374E-1,6.670486075E-1,-1.522239711E0,1.877784256E0
1.278710275E1,8.147258860E-1,8.718876815E-1,-2.170465400E0,2.476870294E0
1.279717675E1,2.739122325E-1,1.057736169E0,-2.488470901E0,2.717778714E0
1.280724975E1,-2.663897896E-1,1.087243558E0,-1.913371806E0,2.216766506E0
1.281732375E1,-3.760382393E-1,8.705480844E-1,-7.692349868E-1,1.221057406E0
1.282739675E1,-4.753798020E-1,9.972227490E-1,-1.970511675E-3,1.104736643E0
1.283746975E1,-9.820386994E-1,2.015788420E0,-2.481979322E-1,2.255971005E0
1.284754375E1,-1.837334906E0,3.774796364E0,-9.327525187E-1,4.300571405E0
1.285761675E1,-2.616047791E0,5.489578308E0,-1.455051841E0,6.252707566E0
1.286769075E1,-2.932128389E0,6.466437544E0,-3.198077591E0,7.787161978E0
1.287776375E1,-2.995754281E0,6.206052845E0,-5.078169969E0,8.560224639E0
1.288783775E1,-2.492307844E0,4.609163632E0,-3.940123463E0,6.555956123E0
1.289791075E1,-1.415486364E0,2.385621886E0,-5.839497328E-2,2.774563642E0
1.290798375E1,-1.470849556E-1,1.885592562E-1,3.210515496E0,3.219409624E0
1.291805775E1,1.169313907E0,-1.642803304E0,4.555441754E0,4.981781537E0
1.292813075E1,2.626921858E0,-3.028025064E0,3.296786192E0,5.190226723E0
1.293820475E1,3.979399796E0,-3.702169853E0,-7.890520777E-1,5.492202430E0
1.294827775E1,4.771877026E0,-2.974670391E0,-1.918554340E0,5.941407665E0
1.295835175E1,5.053912795E0,-1.194281518E0,-2.899871054E-1,5.201195575E0
1.296842475E1,5.249195180E0,6.282511622E-1,-4.237024024E-1,5.303609458E0
1.297849775E1,5.320809538E0,1.537867418E0,-2.188220178E0,5.955195873E0
1.298857175E1,4.569210193E0,1.034251412E0,-1.141226807E0,4.821800119E0
1.299864475E1,3.057412001E0,-1.152344702E0,-1.433409834E-1,3.270506550E0
1.300871875E1,2.395041751E0,-3.070900358E0,-1.039485254E0,4.030779526E0
1.301879175E1,1.927952131E0,-4.057641388E0,-5.640238836E-1,4.527645745E0
1.302886575E1,1.333893732E0,-4.843773220E0,-7.459784174E-1,5.079162854E0
1.303893875E1,1.211671137E0,-5.805404552E0,-2.241621337E0,6.340010661E0
1.304901175E1,1.051287274E0,-6.497961053E0,-3.377189208E0,7.398250451E0
1.305908575E1,5.907956529E-1,-6.191883872E0,-2.270514330E0,6.621457597E0
1.306915875E1,8.832605159E-1,-6.188157442E0,-2.410958164E0,6.699713496E0
1.307923275E1,2.254716761E0,-7.031200808E0,-3.414803177E0,8.135257416E0
1.308930575E1,4.566239222E0,-8.408337623E0,-3.498188858E-1,9.574604717E0
1.309937975E1,7.876747368E0,-1.194443252E1,4.732968776E-1,1.431560782E1
1.310945275E1,1.153399423E1,-1.754762281E1,-1.152440451E0,2.103045906E1
1.311952575E1,1.380442948E1,-2.254405689E1,-9.360467669E-1,2.645133187E1
1.312959975E1,1.394456385E1,-2.455627559E1,1.077134306E0,2.825989650E1
1.313967275E1,1.310217888E1,-2.314977698E1,1.848766798E0,2.666453083E1
1.314974675E1,1.127618465E1,-1.750089537E1,1.213587343E0,2.085441136E1
1.315981975E1,8.606777505E0,-1.107077547E1,-3.295478316E-1,1.402666355E1
1.316989375E1,5.788202044E0,-6.747224348E0,-1.138335943E0,8.962372901E0
1.317996675E1,3.432471709E0,-3.502667533E0,-1.179439603E0,5.043968641E0
1.319003975E1,1.770268220E0,-1.194431791E0,-5.125974027E-1,2.196195112E0
1.320011375E1,6.395959300E-1,1.061222863E0,7.824872625E-1,1.465456664E0
1.321018675E1,-1.961599056E-1,3.013068472E0,2.345252709E0,3.823253927E0
1.322026075E1,-9.369132511E-1,4.657513674E0,3.217190677E0,5.737643760E0
1.323033375E1,-1.445648056E0,6.080949912E0,2.602746545E0,6.770682367E0
1.324040775E1,-1.731482177E0,7.371693531E0,1.191992333E0,7.665555542E0
1.325048075E1,-1.962811769E0,8.653385661E0,-2.795050577E-1,8.877603084E0
1.326055375E1,-2.070227752E0,9.875058460E0,-1.535399308E0,1.020588426E1
1.327062775E1,-2.066297400E0,1.073481200E1,-2.158635314E0,1.114295652E1
1.328070075E1,-1.894830870E0,1.086072594E1,-1.222948662E0,1.109240080E1
1.329077475E1,-1.691453016E0,1.056872652E1,4.768018448E-1,1.071383841E1
1.330084775E1,-1.490978596E0,1.033358893E1,1.309120249E0,1.052235112E1
1.331092175E1,-1.359145517E0,1.029951135E1,1.520573108E0,1.049949300E1
1.332099475E1,-1.244380315E0,1.040700189E1,1.625434735E0,1.060642299E1
1.333106775E1,-1.157290424E0,1.051548996E1,1.672995987E0,1.071045124E1
1.334114175E1,-1.086973709E0,1.061479088E1,1.824770994E0,1.082520607E1
1.335121475E1,-1.147456869E0,1.072567397E1,2.265868425E0,1.102229101E1
1.336128875E1,-1.445922145E0,1.101640338E1,2.725752082E0,1.144034784E1
1.337136175E1,-2.097155788E0,1.132752320E1,3.023942538E0,1.191029272E1
1.338143575E1,-2.178164721E0,1.128880177E1,3.120330380E0,1.191293031E1
1.339150875E1,-2.236909212E0,1.164109768E1,3.377347083E0,1.232580186E1
1.340158175E1,-2.303745080E0,1.223296104E1,3.631841297E0,1.296699072E1
1.341165575E1,-2.325627992E0,1.297980601E1,3.949719914E0,1.376532590E1
1.342172875E1,-2.276944074E0,1.360506749E1,4.207258773E0,1.442162828E1
1.343180275E1,-2.221587314E0,1.402372229E1,4.164983111E0,1.479686863E1
1.344187575E1,-2.254141980E0,1.416865722E1,3.772848657E0,1.483463483E1
1.345194875E1,-2.435085384E0,1.389733004E1,2.983595873E0,1.442107026E1
1.346202275E1,-2.784962157E0,1.310838277E1,2.116152953E0,1.356701207E1
1.347209575E1,-2.982160967E0,1.245347942E1,1.493612766E0,1.289237421E1
1.348216975E1,-3.010476986E0,1.198766098E1,1.242128406E0,1.242215241E1
1.349224275E1,-3.062880902E0,1.135296210E1,1.131644974E0,1.181319636E1
1.350231675E1,-3.145655841E0,1.058474906E1,1.386379655E0,1.112897623E1
1.351238975E1,-3.216328213E0,9.968810377E0,1.699299687E0,1.061176550E1
1.352246275E1,-3.289305557E0,9.551305146E0,1.728011270E0,1.024856009E1
1.353253675E1,-3.302138149E0,9.322993594E0,1.603485164E0,1.001965521E1
1.354260975E1,-3.208107027E0,9.191683257E0,1.483860926E0,9.847884801E0
1.355268375E1,-3.124347125E0,9.106784025E0,1.629028434E0,9.764670700E0
1.356275675E1,-3.188896585E0,8.933162650E0,1.685654332E0,9.633892614E0
1.357283075E1,-3.274062743E0,8.724182578E0,1.554393404E0,9.447062367E0
1.358290375E1,-3.155932030E0,7.812640250E0,-1.533150177E-1,8.427381571E0
1.359297675E1,-2.804153011E0,5.664781355E0,-4.479446369E0,7.747158297E0
1.360305075E1,-2.771961458E0,3.971533536E0,-8.487569150E0,9.772189060E0
1.361312375E1,-2.712163445E0,-1.557464361E-1,-1.635472299E1,1.657881334E1
1.362319775E1,-2.770199399E0,-5.706666130E0,-2.121441643E1,2.214252712E1
1.363327075E1,-3.121329377E0,-8.459811248E0,-9.698162645E0,1.324256252E1
1.364334475E1,-3.380007274E0,-1.763003932E1,8.847818445E0,2.001316134E1
1.365341775E1,-2.307624123E-1,-3.119704962E1,1.588674343E1,3.500996677E1
1.366349075E1,5.542396792E0,-3.993428903E1,6.457238120E0,4.083088937E1
1.367356475E1,1.243656927E1,-4.510675003E1,-7.668954281E0,4.741413305E1
1.368363775E1,1.634700934E1,-4.327813859E1,-3.966899618E0,4.643229788E1
1.369371175E1,1.842245632E1,-3.411889159E1,6.297976338E0,3.928295007E1
1.370378475E1,2.067200063E1,-2.171134789E1,4.006004919E0,3.024503783E1
1.371385875E1,1.927058676E1,-7.320736801E0,4.373108028E0,2.107303432E1
1.372393175E1,1.396309835E1,2.550120435E0,-3.419585030E0,1.460016410E1
1.373400475E1,7.180229963E0,4.424822558E0,-4.261839023E0,9.449763428E0
1.374407933E1,2.967056147E0,4.243557703E0,1.650668833E0,5.434695185E0
1.375415233E1,1.013673890E0,5.351301599E0,-4.309970963E-1,5.463489915E0
1.376422633E1,-1.896117550E-1,4.622519842E0,1.604304067E0,4.896675796E0
1.377429933E1,-6.565937859E-1,4.106801854E0,1.736352761E0,4.506867846E0
1.378437233E1,-4.636491179E-1,4.045920060E0,2.656107943E-1,4.081052404E0
1.379444633E1,1.231604880E-1,3.312152383E0,8.101866925E-1,3.412026434E0
1.380451933E1,5.346343160E-1,2.750570004E0,2.036845851E0,3.464131958E0
1.381459333E1,4.830922794E-1,2.516048709E0,2.528360606E0,3.599511997E0
1.382466633E1,1.467347074E-1,2.343234835E0,2.234574273E0,3.241234757E0
1.383474033E1,-2.514147779E-1,2.356226764E0,1.805510120E0,2.979073807E0
1.384481333E1,-6.124423376E-1,2.503528066E0,1.570622935E0,3.018210529E0
1.385488633E1,-1.160094310E0,2.548086188E0,1.511490190E0,3.181692101E0
1.386496033E1,-1.678103530E0,2.618561509E0,1.207424304E0,3.336280756E0
1.387503333E1,-2.144640295E0,2.719554618E0,8.764403967E-1,3.572619079E0
1.388510733E1,-2.566977665E0,2.894581663E0,3.447027548E-1,3.884172669E0
1.389518033E1,-2.885284298E0,3.187723634E0,-4.412975148E-1,4.322174330E0
1.390525333E1,-3.211818255E0,3.516866911E0,-1.410291113E0,4.967197439E0
1.391532733E1,-3.283162180E0,3.580832527E0,-1.566343943E0,5.104404846E0
1.392540033E1,-3.115208219E0,3.279328453E0,-8.422668564E-1,4.600861964E0
1.393547433E1,-2.820505334E0,2.678372678E0,9.979910731E-2,3.890872705E0
1.394554733E1,-2.263389936E0,2.085102484E0,6.174355674E-1,3.138759795E0
1.395562133E1,-1.520433944E0,1.968354637E0,2.425343192E-1,2.498992247E0
1.396569433E1,-1.255652432E0,1.553899899E0,-5.722997403E-1,2.078171051E0
1.397576733E1,-9.890220290E-1,6.594168216E-1,-1.100129067E0,1.619654001E0
1.398584133E1,-6.682385159E-1,-3.004164916E-1,-1.015756084E0,1.252418941E0
1.399591433E1,-3.215980303E-1,-1.164282378E0,-8.076361370E-1,1.453015787E0
1.400598833E1,2.427588522E-2,-1.873965374E0,-9.358024263E-1,2.094770088E0
1.401606133E1,2.874511680E-1,-2.353699012E0,-8.075601232E-1,2.504931250E0
1.402613533E1,6.011092642E-1,-2.549081969E0,-9.350640692E-2,2.620666839E0
1.403620833E1,9.861288267E-1,-2.487942898E0,8.406903740E-1,2.805186309E0
1.404628133E1,1.394114498E0,-1.924619218E0,1.907062368E0,3.047064365E0
1.405635533E1,1.545429914E0,-9.633539218E-1,2.505500332E0,3.097407999E0
1.406642833E1,1.555558754E0,-7.926134706E-2,2.774160011E0,3.181510516E0
1.407650233E1,1.555200904E0,4.391340816E-1,2.581425258E0,3.045528682E0
1.408657533E1,1.327489277E0,1.075186014E0,1.224519224E0,2.101832552E0
1.409664933E1,1.037211272E0,1.476175784E0,-2.565126729E-1,1.822279046E0
1.410672233E1,7.333425844E-1,1.388192146E0,-1.276926649E0,2.023712046E0
1.411679533E1,2.945391628E-1,9.785040575E-1,-2.002025682E0,2.247738940E0
1.412686933E1,-1.774951547E-1,4.805335379E-1,-1.811189082E0,1.882238800E0
1.413694233E1,-5.244502205E-1,-1.034963018E-1,-1.023677891E0,1.154848884E0
1.414701633E1,-7.952827245E-1,-6.471733367E-1,-5.596580235E-1,1.168128864E0
1.415708933E1,-9.839834833E-1,-1.069644023E0,-6.355970923E-1,1.586299308E0
1.416716233E1,-1.017125794E0,-1.317508079E0,-7.409299314E-1,1.821908226E0
1.417723633E1,-9.015099683E-1,-1.278742209E0,-5.459124621E-1,1.657082459E0
1.418730933E1,-6.153492808E-1,-9.261551052E-1,-2.628417357E-1,1.142586449E0
1.419738333E1,-4.095541871E-1,-5.550621486E-1,-1.576222594E-1,7.075827850E-1
1.420745633E1,-4.143027109E-1,-2.388002872E-1,6.333119273E-2,4.823724219E-1
1.421753033E1,-4.671849293E-1,8.168677211E-2,3.860975333E-1,6.115601296E-1
1.422760333E1,-5.143918401E-1,3.887363452E-1,6.122163792E-1,8.891140569E-1
1.423767633E1,-5.735671243E-1,6.904649520E-1,5.890439001E-1,1.073635791E0
1.424775033E1,-6.376011524E-1,9.222824943E-1,4.881232603E-1,1.222867346E0
1.425782333E1,-6.257622948E-1,1.067348406E0,4.457390964E-1,1.315102434E0
1.426789733E1,-4.884834123E-1,1.037984859E0,3.464288529E-1,1.198349515E0
1.427797033E1,-3.072305444E-1,9.371233124E-1,1.933382221E-1,1.004972825E0
1.428804433E1,-6.778852522E-2,8.280809265E-1,1.920424426E-1,8.527564745E-1
1.429811733E1,2.005407858E-1,7.424379283E-1,4.668709703E-1,8.996661531E-1
1.430819033E1,4.096433571E-1,7.158617485E-1,5.005473145E-1,9.647866795E-1
1.431826433E1,5.125900206E-1,8.233160305E-1,4.474581047E-1,1.068090151E0
1.432833733E1,5.320495543E-1,1.027844617E0,3.961452790E-1,1.223303874E0
1.433841133E1,5.490582275E-1,1.296375073E0,1.924154949E-1,1.420942289E0
1.434848433E1,6.066135406E-1,1.602870330E0,-4.228976794E-1,1.765223988E0
1.435855733E1,6.672643697E-1,1.716877586E0,-8.900820239E-1,2.045765479E0
1.436863133E1,7.443315491E-1,1.653454592E0,-1.159040934E0,2.152049588E0
1.437870433E1,7.095265827E-1,1.665762396E0,-1.303629713E0,2.231063146E0
1.438877833E1,5.649822423E-1,1.794847283E0,-1.096308496E0,2.177745169E0
1.439885133E1,2.213802624E-1,2.040347310E0,-5.836874852E-1,2.133709785E0
1.440892533E1,-4.881811112E-1,2.780490791E0,3.256755862E-1,2.841744961E0
1.441899833E1,-1.440544606E0,4.182351388E0,1.296252573E0,4.609501343E0
1.442907133E1,-2.330966792E0,5.454325445E0,1.340123355E-2,5.931547171E0
1.443914533E1,-3.524502790E0,6.427092215E0,-3.759487477E0,8.237923303E0
1.444921833E1,-5.439643672E0,5.998379041E0,-7.322001554E0,1.091705002E1
1.445929233E1,-6.799207850E0,4.962678105E0,-7.589310526E0,1.133380058E1
1.446936533E1,-6.487535468E0,4.258457578E0,-3.111333269E0,8.360799729E0
1.447943833E1,-4.317136726E0,3.193441626E0,1.777685998E0,5.656492414E0
1.448951233E1,-8.769098550E-1,1.527992055E0,4.510482220E0,4.842332132E0
1.449958533E1,2.342990422E0,-1.039159564E0,5.771021755E0,6.314598072E0
1.450965933E1,5.057460301E0,-3.599986836E0,5.491074611E0,8.287925573E0
1.451973233E1,7.464636194E0,-5.065743467E0,2.987341015E0,9.502986726E0
1.452980633E1,9.211078472E0,-4.861749900E0,-1.185720025E0,1.048267669E1
1.453987933E1,1.001442918E1,-2.748876066E0,-4.805109968E0,1.144264800E1
1.454995233E1,8.793732285E0,9.415362060E-1,-4.725092869E0,1.002709931E1
1.456002633E1,5.736741868E0,2.033584421E0,-6.720520699E-1,6.123506091E0
1.457009933E1,1.889109662E0,2.098858058E-1,7.902643517E-1,2.058471548E0
1.458017333E1,1.337445331E-1,-2.545637959E-1,-1.365100029E0,1.395058571E0
1.459024633E1,1.451612216E-1,-7.655584037E-1,-7.759032977E-1,1.099626017E0
1.460032033E1,5.238830405E-1,-1.653437051E0,-4.771842527E-1,1.798891973E0
1.461039333E1,7.064471465E-1,-2.914757481E0,-9.428684941E-1,3.143863823E0
1.462046633E1,1.275028642E0,-4.402776800E0,-1.040520211E0,4.700300406E0
1.463054033E1,2.561965140E0,-5.661456043E0,-2.586089874E0,6.730795699E0
1.464061333E1,4.053570557E0,-7.081416112E0,-4.373582822E0,9.257759724E0
1.465068733E1,5.451745654E0,-8.523199158E0,-5.020025257E0,1.129456100E1
1.466076033E1,6.114036382E0,-9.172166421E0,-6.140474567E0,1.261806267E1
1.467083333E1,6.443842734E0,-8.387308697E0,-3.310209353E0,1.108275879E1
1.468090733E1,7.773991908E0,-8.100414476E0,-8.871796122E-1,1.126227120E1
1.469098033E1,9.607151903E0,-9.453940820E0,-6.320860586E-1,1.349347611E1
1.470105433E1,1.116211249E1,-1.203645600E1,-7.831395194E-2,1.641569862E1
1.471112733E1,1.239566332E1,-1.526648716E1,4.638571326E-1,1.967061928E1
1.472120133E1,1.274356447E1,-1.783763301E1,1.668622123E0,2.198553812E1
1.473127433E1,1.230036774E1,-1.906638211E1,1.504751566E0,2.273961853E1
1.474134608E1,1.061246252E1,-1.763050592E1,1.214003445E0,2.061390075E1
1.475142008E1,8.778006783E0,-1.267297454E1,7.405426995E-1,1.543392660E1
1.476149308E1,7.022473254E0,-7.902630653E0,4.585574356E-1,1.058191744E1
1.477156708E1,4.945130610E0,-4.436524006E0,4.967801727E-2,6.643758719E0
1.478164008E1,2.949972922E0,-1.579632910E0,-1.531701529E-1,3.349782301E0
1.479171308E1,1.230181668E0,1.073769234E0,5.079405340E-1,1.710067510E0
1.480178708E1,-1.716903314E-1,3.185687048E0,1.894742285E0,3.710542800E0
1.481186008E1,-1.277956928E0,4.724056742E0,2.760310296E0,5.618647430E0
1.482193408E1,-2.051730085E0,6.030342261E0,2.659103179E0,6.902568641E0
1.483200708E1,-2.559108775E0,7.315626335E0,1.751379082E0,7.945738171E0
1.484208108E1,-2.989336962E0,8.552130012E0,5.220008218E-1,9.074554979E0
1.485215408E1,-3.729710239E0,1.047963249E1,-2.007581853E0,1.130326592E1
1.486222708E1,-4.485718385E0,1.221176371E1,-3.422261885E0,1.345216409E1
1.487230108E1,-4.119611057E0,1.189774601E1,-6.502736036E-1,1.260755373E1
1.488237408E1,-3.283390514E0,1.088748163E1,1.705229348E0,1.149894415E1
1.489244808E1,-2.840101985E0,1.050778800E1,1.779656217E0,1.102936826E1
1.490252108E1,-2.610027206E0,1.041179543E1,1.495301588E0,1.083760366E1
1.491259408E1,-2.524414905E0,1.039530746E1,1.446760197E0,1.079482296E1
1.492266808E1,-2.660554750E0,1.059175870E1,1.814560879E0,1.107052551E1
1.493274108E1,-2.872897264E0,1.054056867E1,2.043654642E0,1.111456930E1
1.494281508E1,-2.961383471E0,1.037999828E1,2.253866576E0,1.102697016E1
1.495288808E1,-3.239412143E0,1.058095538E1,2.532175622E0,1.135175410E1
1.496296208E1,-3.607163123E0,1.093764372E1,3.141670963E0,1.193791324E1
1.497303508E1,-3.871349097E0,1.140012691E1,3.652135229E0,1.258126898E1
1.498310808E1,-3.862517755E0,1.184506026E1,4.229868494E0,1.315736613E1
1.499318208E1,-3.545745724E0,1.238558155E1,4.846790676E0,1.376467664E1
1.500325508E1,-3.052457070E0,1.292539416E1,5.403651720E0,1.433815749E1
1.501332908E1,-2.830462850E0,1.302930386E1,5.065306095E0,1.426294517E1
1.502340208E1,-2.838192285E0,1.293342707E1,4.504487947E0,1.398639635E1
1.503347508E1,-2.884950714E0,1.286526607E1,3.923068889E0,1.375603436E1
1.504354908E1,-2.987797390E0,1.254965208E1,3.313251075E0,1.331909657E1
1.505362208E1,-3.115973620E0,1.193782049E1,2.770052049E0,1.264492143E1
1.506369608E1,-3.122779194E0,1.133246059E1,2.169270229E0,1.195333201E1
1.507376908E1,-3.031954393E0,1.086133405E1,1.595953074E0,1.138895917E1
1.508384308E1,-2.944513376E0,1.041412730E1,1.323468146E0,1.090301676E1
1.509391608E1,-2.863171590E0,1.005199754E1,1.274165886E0,1.052919298E1
1.510398908E1,-2.806247484E0,9.735872508E0,1.298008638E0,1.021504111E1
1.511406308E1,-2.759744578E0,9.527149714E0,1.343150020E0,1.000933683E1
1.512413608E1,-2.676600972E0,9.387518204E0,1.293466229E0,9.846966318E0
1.513421008E1,-2.551052481E0,9.335822386E0,1.224311356E0,9.755223558E0
1.514428308E1,-2.475611705E0,9.275664477E0,1.131135390E0,9.666750854E0
1.515435608E1,-2.482931249E0,9.165314654E0,1.107398471E0,9.560035129E0
1.516443008E1,-2.565095154E0,8.959582125E0,1.296566423E0,9.409299097E0
1.517450308E1,-2.810116879E0,8.560365230E0,1.242014532E0,9.095010162E0
1.518457708E1,-2.973922532E0,6.785740542E0,-2.068134741E0,7.692052473E0
1.519465008E1,-2.902894065E0,2.221847223E0,-1.014462212E1,1.078317008E1
1.520472308E1,-2.701252541E0,-2.511969692E0,-1.978317474E1,2.012413376E1
1.521479708E1,-2.241943519E0,-7.972759818E0,-2.215499018E1,2.365237408E1
1.522487008E1,-1.942979768E0,-9.440201032E0,-4.107612863E0,1.047688166E1
1.523494408E1,-1.657002975E0,-1.911485436E1,1.636378033E1,2.521699076E1
1.524501708E1,3.070568528E0,-3.602980376E1,1.550443142E1,3.934415514E1
1.525509108E1,1.106135327E1,-5.192078642E1,5.352592371E-1,5.308868148E1
1.526516408E1,1.651600323E1,-5.662347276E1,-3.668252201E0,5.909697204E1
1.527523708E1,1.827244483E1,-5.064220618E1,-1.561580509E0,5.386050334E1
1.528531108E1,1.563038161E1,-3.429925480E1,4.726421356E-1,3.769577032E1
1.529538408E1,1.031794762E1,-1.680059657E1,3.935004226E0,2.010483391E1
1.530545808E1,6.126357635E0,-6.816164190E0,4.690040857E0,1.029508792E1
1.531553108E1,2.800477744E0,-1.804057817E0,-9.387850910E-2,3.332583589E0
1.532560508E1,1.864144975E-1,1.489451888E0,-6.146253955E0,6.326899318E0
1.533567808E1,-1.959882022E0,3.185301717E0,-6.368417745E0,7.385392957E0
1.534575108E1,-3.058033560E0,4.382793941E0,-1.954750944E0,5.690474781E0
1.535582508E1,-3.450897747E0,5.972922603E0,-1.048929531E0,6.977446011E0
1.536589808E1,-3.208142403E0,7.145493409E0,-1.444525537E0,7.964728982E0
1.537597208E1,-2.612078409E0,7.242060176E0,-1.122563079E-2,7.698734650E0
1.538604508E1,-1.912499110E0,6.609376239E0,2.031108563E0,7.174044125E0
1.539611808E1,-1.128899999E0,6.123240484E0,2.143234917E0,6.584978750E0
1.540619208E1,-2.287439534E-1,6.104537580E0,2.436219013E-1,6.113677657E0
1.541626508E1,3.770281729E-1,6.274875158E0,-6.411751167E-1,6.318806376E0
1.542633908E1,3.821529651E-1,6.555428658E0,4.342703676E-1,6.580902410E0
1.543641208E1,-2.094113043E-1,7.090651789E0,1.359220362E0,7.222788649E0
1.544648508E1,-7.761719772E-1,7.508814831E0,1.177705392E0,7.640139600E0
1.545655908E1,-1.083010173E0,7.401954042E0,4.650464563E-1,7.495205326E0
1.546663208E1,-1.189650523E0,6.538067105E0,-1.782909608E-1,6.647809978E0
1.547670608E1,-9.379334441E-1,5.155998749E0,-3.254010594E-1,5.250707389E0
1.548677908E1,-3.762811911E-1,3.759120564E0,-1.375930973E-1,3.780410931E0
1.549685308E1,3.244962028E-1,2.458689278E0,8.148796678E-1,2.610455827E0
1.550692608E1,8.886367384E-1,1.243175350E0,2.159762657E0,2.645701219E0
1.551699908E1,1.359279711E0,-2.483528835E-1,2.700785640E0,3.033737557E0
1.552707308E1,1.725278281E0,-1.836092373E0,2.075192038E0,3.264083691E0
1.553714608E1,2.019543209E0,-3.382180976E0,3.573759735E-1,3.955429246E0
1.554722008E1,2.136170603E0,-4.710843789E0,-1.759255282E0,5.463538523E0
1.555729308E1,1.871784070E0,-5.463415527E0,-3.511665813E0,6.759014840E0
1.556736608E1,1.006159926E0,-5.526874189E0,-4.074046336E0,6.939492031E0
1.557744008E1,-2.970172128E-1,-4.311069070E0,-3.332344573E0,5.456927350E0
1.558751308E1,-1.314785908E0,-1.968886734E0,-2.181148263E0,3.219096877E0
1.559758708E1,-1.656019766E0,-2.191583204E-1,-1.183527977E0,2.047234795E0
1.560766008E1,-1.500444361E0,9.727948362E-1,-6.482351911E-1,1.902070434E0
1.561773408E1,-1.058312412E0,1.958141305E0,-3.535647583E-1,2.253741461E0
1.562780708E1,-4.842017886E-1,2.448798128E0,1.123799034E-1,2.498738259E0
1.563788008E1,1.858040482E-1,2.374316880E0,8.560312752E-1,2.530749559E0
1.564795408E1,9.127629349E-1,1.935241270E0,1.346612595E0,2.528173339E0
1.565802708E1,1.409698497E0,1.492255628E0,1.167269282E0,2.361481376E0
1.566810108E1,1.604464281E0,9.253978908E-1,9.469412260E-1,2.080231855E0
1.567817408E1,1.726771952E0,3.187112600E-1,7.959909685E-1,1.927931499E0
1.568824708E1,1.896929144E0,1.684407413E-2,4.262010638E-1,1.944291965E0
1.569832108E1,2.070243539E0,-2.099974877E-1,1.716730090E-1,2.087936512E0
1.570839408E1,2.172531514E0,-3.667350268E-1,-2.960686482E-2,2.203466434E0
1.571846808E1,2.162985350E0,-3.339128512E-1,-1.042172635E-1,2.191087550E0
1.572854108E1,1.977773040E0,-1.696113539E-1,-2.664329859E-1,2.002833179E0
1.573861508E1,1.572302548E0,1.074659765E-2,-6.144124838E-1,1.688121291E0
1.574868437E1,9.637664428E-1,2.729731697E-1,-8.452804383E-1,1.310671251E0
1.575875737E1,2.876727775E-1,6.136641133E-1,-9.772264409E-1,1.189247992E0
1.576883137E1,-2.415777147E-1,8.367751515E-1,-9.191379348E-1,1.266241284E0
1.577890437E1,-5.955465156E-1,8.863987166E-1,-8.171986735E-1,1.344690302E0
1.578897837E1,-7.884256947E-1,7.695619923E-1,-7.342524111E-1,1.323996729E0
1.579905137E1,-8.174004024E-1,5.632359713E-1,-5.883889389E-1,1.153940952E0
1.580912437E1,-7.024847808E-1,2.751617825E-1,-3.720478801E-1,8.412006294E-1
1.581919838E1,-4.954939315E-1,1.115648746E-2,-1.245421851E-1,5.110278458E-1
1.582927137E1,-2.225400576E-1,-1.202456510E-1,-4.594668970E-3,2.529905232E-1
1.583934537E1,1.770829260E-3,-2.194775784E-1,1.040172887E-1,2.428850337E-1
1.584941838E1,1.463660404E-1,-3.120653147E-1,3.534196743E-1,4.936732164E-1
1.585949137E1,2.131421202E-1,-3.636067665E-1,4.149476588E-1,5.914566794E-1
1.586956537E1,2.622885525E-1,-4.110844034E-1,3.009117508E-1,5.730039732E-1
1.587963838E1,2.889293441E-1,-4.435352808E-1,4.115270376E-3,5.293587127E-1
1.588971237E1,2.666216317E-1,-4.439872706E-1,-1.185289816E-1,5.312823265E-1
1.589978537E1,1.631402403E-1,-3.471258044E-1,4.354772329E-2,3.860148524E-1
1.590985937E1,-1.022911906E-2,-1.360769874E-1,2.678598527E-1,3.006168359E-1
1.591993237E1,-2.279402536E-1,1.570269763E-1,4.905556655E-1,5.632575712E-1
1.593000537E1,-4.119822434E-1,4.413490069E-1,6.344063799E-1,8.757795211E-1
1.594007937E1,-5.558459678E-1,7.248465800E-1,6.019755292E-1,1.093956965E0
1.595015237E1,-7.920068219E-1,1.132049017E0,4.065311766E-1,1.440165748E0
1.596022637E1,-9.886635947E-1,1.433617410E0,2.578085621E-1,1.760448760E0
1.597029937E1,-1.118205734E0,1.551697837E0,1.191406734E-1,1.916336281E0
1.598037237E1,-1.174050444E0,1.513681580E0,-1.502032757E-2,1.915685773E0
1.599044637E1,-1.035649481E0,1.373768819E0,-3.196029603E-1,1.749844755E0
1.600051937E1,-7.646731353E-1,1.185662722E0,-7.102088065E-1,1.579530830E0
1.601059338E1,-5.363098356E-1,1.105951139E0,-4.201516807E-1,1.298954810E0
1.602066637E1,-4.391033837E-1,1.347624748E0,7.451785183E-1,1.601310485E0
1.603073937E1,-5.230626762E-1,1.798694167E0,1.413983045E0,2.346964703E0
1.604081337E1,-8.409670204E-1,2.550863031E0,5.433938836E-1,2.740329295E0
1.605088638E1,-1.224280950E0,3.215737644E0,-9.777838267E-1,3.577134838E0
1.606096037E1,-1.531013604E0,3.486401163E0,-2.610523050E0,4.616689974E0
1.607103337E1,-1.858300098E0,3.386506746E0,-5.246289114E0,6.515002430E0
1.608110737E1,-2.164387804E0,2.856009336E0,-5.813113521E0,6.828883708E0
1.609118037E1,-2.491654710E0,2.329858745E0,-2.062619355E0,3.986349654E0
1.610125337E1,-2.636823826E0,1.867812933E0,6.222867098E-1,3.290715088E0
1.611132737E1,-2.235843118E0,1.446574255E0,6.610607663E-1,2.743824496E0
1.612140037E1,-1.257922028E0,9.027253121E-1,4.686996505E-1,1.617702130E0
1.613147437E1,-1.207947046E-1,4.865643561E-2,4.148076180E-1,4.347690988E-1
1.614154737E1,1.171105494E0,-9.593807387E-1,5.770780849E-1,1.620160053E0
1.615162037E1,2.251454015E0,-1.659029328E0,7.211575717E-1,2.888164077E0
1.616169437E1,3.082776053E0,-2.215145729E0,1.865581343E0,4.229748520E0
1.617176737E1,3.569769010E0,-2.100292965E0,3.050082224E0,5.143683786E0
1.618184138E1,4.035741227E0,-1.314333041E0,2.646224102E0,5.001717764E0
1.619191437E1,4.372714511E0,-2.538966286E-1,9.994122389E-1,4.492651835E0
1.620198737E1,4.735575757E0,6.456887287E-1,-7.328359231E-1,4.835249753E0
1.621206138E1,4.973462709E0,1.284756655E0,-2.367868862E0,5.656211977E0
1.622213437E1,4.691129901E0,1.438924928E0,-2.033749312E0,5.311623195E0
1.623220837E1,3.629172043E0,4.871999484E-1,-2.208590708E0,4.276228060E0
1.624228138E1,2.091746675E0,-1.286715472E0,-3.264990788E0,4.085487205E0
1.625235437E1,1.288870171E0,-2.389914912E0,-2.329643860E0,3.577725551E0
1.626242837E1,9.472834343E-1,-3.299631740E0,-1.502518953E0,3.747329546E0
1.627250137E1,9.348230177E-1,-3.977247435E0,-1.975786448E0,4.538295200E0
1.628257537E1,6.115819198E-1,-4.228126901E0,-1.999311551E0,4.716814201E0
1.629264837E1,-3.829867780E-1,-4.133922994E0,-1.961763071E0,4.591787510E0
1.630272137E1,-1.107161513E0,-3.874176811E0,-6.767380285E-1,4.085710090E0
1.631279537E1,-9.240074229E-1,-3.714882869E0,-9.875821522E-1,3.953411559E0
1.632286837E1,-1.557715791E-1,-4.270737315E0,-4.828546486E0,6.448125555E0
1.633294237E1,1.428405202E0,-5.839835297E0,-8.547800149E0,1.045030646E1
1.634301537E1,3.744582047E0,-7.198053446E0,-4.655551056E0,9.354572345E0
1.635308937E1,6.923696240E0,-9.464642978E0,3.082205072E0,1.212505771E1
1.636316237E1,1.174768775E1,-1.540341843E1,2.963989867E0,1.959741571E1
1.637323537E1,1.574498119E1,-2.151719227E1,-1.848413041E-1,2.666323615E1
1.638330937E1,1.646872615E1,-2.380807523E1,4.246775718E-1,2.895209385E1
1.639338237E1,1.551013713E1,-2.325541979E1,7.035032196E-1,2.796200673E1
1.640345637E1,1.275376201E1,-1.843572599E1,5.964009400E-1,2.242521198E1
1.641352938E1,9.361836648E0,-1.201161586E1,3.739925909E-1,1.523360664E1
1.642360237E1,6.395564028E0,-7.229917263E0,-8.135326155E-1,9.686938535E0
1.643367637E1,3.779291996E0,-3.431444938E0,-1.506636708E0,5.322388235E0
1.644374938E1,1.674229749E0,-8.604943818E-1,-1.812588905E0,2.613230639E0
1.645382337E1,2.748232287E-1,1.185801886E0,-1.471512484E0,1.909712782E0
1.646389637E1,-6.756033763E-1,3.436187029E0,2.433464974E-3,3.501974749E0
1.647396938E1,-1.372873318E0,5.497359783E0,1.268217806E0,5.806386323E0
1.648404337E1,-1.986537431E0,6.871257825E0,4.932477236E-1,7.169644928E0
1.649411637E1,-2.574119747E0,8.413960306E0,-1.322897458E0,8.897801874E0
1.650419037E1,-3.057593849E0,9.965063481E0,-2.437997736E0,1.070491491E1
1.651426337E1,-3.259743789E0,1.087637192E1,-1.740262356E0,1.148694515E1
1.652433637E1,-3.124068505E0,1.118308996E1,-3.765478241E-1,1.161736172E1
1.653441037E1,-2.665549150E0,1.080997679E1,7.686854216E-1,1.116027005E1
1.654448337E1,-2.194070464E0,1.031635718E1,1.322737244E0,1.062971328E1
1.655455737E1,-1.851200117E0,1.007245344E1,1.272313195E0,1.031988571E1
1.656463037E1,-1.586295958E0,9.976877196E0,1.185153283E0,1.017147982E1
1.657470337E1,-1.445892908E0,9.964163010E0,1.351876113E0,1.015887394E1
1.658477737E1,-1.351374275E0,1.001402573E1,1.758147819E0,1.025660799E1
1.659485037E1,-1.270121513E0,1.011267059E1,2.264844285E0,1.044072961E1
1.660492437E1,-1.275948263E0,1.026171144E1,2.715243466E0,1.069127274E1
1.661499737E1,-1.246504463E0,1.034273514E1,3.055060251E0,1.085630401E1
1.662507037E1,-1.218706726E0,1.046920925E1,3.384609325E0,1.107001213E1
1.663514437E1,-1.349934252E0,1.081154150E1,3.949531049E0,1.158924276E1
1.664521738E1,-1.389412898E0,1.096407548E1,3.970471974E0,1.174334139E1
1.665529137E1,-1.285115820E0,1.099889682E1,3.775333139E0,1.169958949E1
1.666536437E1,-1.156881703E0,1.107939894E1,3.865276179E0,1.179117535E1
1.667543837E1,-1.063290146E0,1.124918454E1,4.075796700E0,1.201194645E1
1.668551137E1,-1.061191288E0,1.140593787E1,4.089256991E0,1.216320551E1
1.669558437E1,-1.079267663E0,1.152688519E1,3.940421964E0,1.222950637E1
1.670565837E1,-1.167106729E0,1.159647173E1,3.818092073E0,1.226450659E1
1.671573137E1,-1.311412211E0,1.163202982E1,3.708731306E0,1.227919409E1
1.672580537E1,-1.469416696E0,1.160310598E1,3.556161954E0,1.222446488E1
1.673587837E1,-1.579235445E0,1.148574067E1,3.460843276E0,1.209932475E1
1.674595137E1,-1.610652389E0,1.131403134E1,3.477660161E0,1.194552746E1
