"Time (s)","Linear Acceleration x (m/s^2)","Linear Acceleration y (m/s^2)","Linear Acceleration z (m/s^2)","Absolute acceleration (m/s^2)"
-7.651249907E-4,6.139773779E-2,1.035913190E-1,8.926944137E-3,1.207498816E-1
9.307875007E-3,-1.692030720E-1,1.546658707E-1,4.740162313E-2,2.340899934E-1
1.938087500E-2,-2.741398354E-1,2.284317121E-1,2.740923268E-1,4.499558868E-1
2.945387500E-2,-1.918396904E-1,2.092949447E-1,3.853502226E-1,4.786456254E-1
3.952687500E-2,-2.162592709E-3,1.382641384E-1,4.319636410E-1,4.535573128E-1
4.959987500E-2,1.850704419E-1,8.443876415E-2,2.677200311E-1,3.362365067E-1
5.967287501E-2,2.570526633E-1,9.617558777E-2,-6.546542645E-3,2.745335546E-1
6.974587501E-2,2.103076825E-1,1.406267059E-1,-3.110590088E-1,4.009524893E-1
7.981887501E-2,2.332577115E-1,1.535057831E-1,-6.212742645E-1,6.811423472E-1
8.989187500E-2,2.878256822E-1,2.105816245E-1,-8.380159307E-1,9.107463664E-1
9.996487500E-2,2.846646774E-1,3.301308721E-1,-9.046081156E-1,1.004159456E0
1.100378750E-1,2.807990831E-1,2.723954648E-1,-7.823293877E-1,8.746923374E-1
1.201098750E-1,3.638945957E-1,1.478412929E-1,-5.984087276E-1,7.157997834E-1
1.301828750E-1,5.784259412E-1,7.893741131E-6,-5.339905375E-1,7.872245320E-1
1.402558750E-1,8.816944854E-1,-2.168214807E-1,-2.728012615E-1,9.480597283E-1
1.503328750E-1,1.008610494E0,-5.249016255E-1,-2.198020989E-1,1.158071590E0
1.604058750E-1,1.035236448E0,-4.220423779E-1,-6.159193844E-1,1.276397650E0
1.704788750E-1,1.081875887E0,-1.744040242E-1,-9.494697082E-1,1.449953422E0
1.805518750E-1,1.129803248E0,-1.884721327E-1,-9.112388581E-1,1.463671199E0
1.906248750E-1,1.407771840E0,-6.181591603E-1,-3.780435419E-1,1.583306420E0
2.006978750E-1,1.051109958E0,-7.058624250E-1,-9.085432917E-1,1.558372490E0
2.107708750E-1,1.075775706E0,-1.798363799E-1,-4.236477309E-1,1.170090549E0
2.208438750E-1,1.715912357E0,-2.395805982E-1,-3.605375630E-1,1.769672686E0
2.309168750E-1,1.667913733E0,-8.199521273E-1,-2.257165575E-1,1.872219452E0
2.409898750E-1,1.196511427E0,-6.884988257E-1,3.921709996E-1,1.435084778E0
2.510628750E-1,8.859677768E-1,-3.610462707E-1,4.706599295E-1,1.066214838E0
2.611358750E-1,8.607646693E-1,-3.299019536E-1,3.347238600E-1,9.807095276E-1
2.712088750E-1,9.881369068E-1,-4.144082531E-1,4.912801355E-1,1.178772632E0
2.812818750E-1,1.140396941E0,-5.415153193E-1,3.804806614E-1,1.318525524E0
2.913548750E-1,1.297930724E0,3.726600105E-1,-1.461400455E-1,1.358254969E0
3.014278750E-1,1.492584826E0,-1.704258710E-2,-3.324761903E-1,1.529261367E0
3.115008750E-1,1.182769081E0,-1.703105054E0,-7.215598601E-1,2.195485859E0
3.215738750E-1,6.031478228E-1,-2.288769776E0,-8.771718103E-1,2.524219635E0
3.316468750E-1,8.341172265E-1,-1.935872477E0,-1.628149597E0,2.663498621E0
3.417198750E-1,1.108517336E0,-8.139169237E-1,-4.937774813E-1,1.461193911E0
3.517928750E-1,1.003821624E0,-3.676543553E-1,2.405532825E-1,1.095761589E0
3.618658750E-1,7.416889000E-1,-6.356913055E-1,6.562891459E-1,1.176826794E0
3.719388750E-1,4.964981908E-1,-1.137357412E0,1.032218919E0,1.614177262E0
3.820118750E-1,3.685897271E-1,-1.333049540E0,9.366508573E-1,1.670387468E0
3.920848750E-1,2.689803985E-1,-1.156421381E0,4.124982601E-1,1.256907188E0
4.021578750E-1,2.734653591E-1,-8.459884630E-1,-3.771559346E-1,9.657776044E-1
4.122308750E-1,1.989002033E-1,-5.467934547E-1,-8.808736825E-1,1.055690683E0
4.223038750E-1,-1.231992258E-1,-3.217914270E-1,-7.483816230E-1,8.238949116E-1
4.323768750E-1,-4.721392751E-1,-3.319495024E-1,-8.437649131E-1,1.022274521E0
4.424498750E-1,-6.142695194E-1,-3.984050086E-1,-1.107638061E0,1.327748345E0
4.525228750E-1,-3.313202689E-1,-4.474746962E-1,-8.648663449E-1,1.028591522E0
4.625958750E-1,5.413754247E-2,-7.100083932E-1,5.858033001E-2,7.144749450E-1
4.726688750E-1,2.864830884E-1,-1.222264976E0,3.957600206E-1,1.316294126E0
4.827418750E-1,2.507300690E-1,-1.712183295E0,-4.213053364E-1,1.780992810E0
4.928148750E-1,8.004594107E-1,-1.661801639E0,-1.156273447E0,2.176990638E0
5.028878750E-1,1.876750402E0,-1.386786768E0,-9.903142637E-1,2.534973758E0
5.129608750E-1,1.748236204E0,-1.224372459E0,-1.815141799E0,2.801813251E0
5.230338750E-1,4.294053380E-1,-1.085055529E0,-1.238791693E0,1.701863480E0
5.331068750E-1,2.165712199E-1,-1.258727628E0,-2.430084699E0,2.745288688E0
5.431788750E-1,-5.287625420E-1,-1.778882484E0,-2.155945010E0,2.844663707E0
5.532518750E-1,-7.353788772E-1,-1.524788366E0,-2.374994572E0,2.916566624E0
5.633248750E-1,3.172582269E-2,-8.377646466E-1,-3.185317504E0,3.293797768E0
5.733978750E-1,6.960250694E-1,-1.069335875E-1,-3.521359327E0,3.591080227E0
5.834708750E-1,1.305676531E0,-2.258168373E-1,-1.945666856E0,2.354018683E0
5.935438750E-1,1.218294863E0,-3.529046077E-1,-1.031560523E0,1.634900960E0
6.036168750E-1,9.044999421E-1,-7.500390163E-1,-5.789953870E-1,1.309929131E0
6.136898750E-1,6.622761101E-1,-1.050501555E0,1.444952238E-1,1.250216794E0
6.237628750E-1,1.114046609E-1,-1.333831167E0,9.041023314E-1,1.615214415E0
6.338358750E-1,-5.381025919E-1,-1.738858439E0,1.407291491E0,2.300793866E0
6.439088750E-1,-7.406533581E-1,-1.592688281E0,9.558905357E-1,1.999737501E0
6.539818750E-1,-7.328777307E-1,-1.374506153E0,6.859672737E-1,1.702036437E0
6.640548750E-1,-5.747921160E-1,-1.451748749E0,4.407116604E-1,1.622401668E0
6.741278750E-1,-3.508399558E-1,-1.159356464E0,-7.205640793E-1,1.409400113E0
6.842008750E-1,-1.912589157E-1,-4.712314218E-1,-1.261927371E0,1.360551254E0
6.942738750E-1,2.950914323E-2,8.433987312E-1,3.730932891E-1,9.227084110E-1
7.043468750E-1,-3.705982822E-1,1.281003474E0,1.056411774E0,1.701269768E0
7.144198750E-1,-1.053259833E0,3.258024707E-2,1.921742388E0,2.191691482E0
7.244928750E-1,-1.428896368E0,-1.069069534E0,2.869333971E0,3.379013456E0
7.345658750E-1,-1.719773127E0,-4.465278127E-1,3.174435836E0,3.637863325E0
7.446388750E-1,-1.894544649E0,2.903242705E-1,2.887771996E0,3.465950765E0
7.547118750E-1,-1.813334425E0,4.338773616E-1,1.761531603E0,2.565038965E0
7.647848750E-1,-1.109426724E0,2.833946621E-1,7.733159047E-1,1.381722722E0
7.748578750E-1,-1.007127640E0,2.138722913E-1,3.994080985E-1,1.104343366E0
7.849308750E-1,-1.740398011E0,3.451640636E-2,3.433034796E-1,1.774269962E0
7.950038750E-1,-2.055947389E0,1.352611363E-1,1.684471732E-1,2.067266237E0
8.050768750E-1,-2.383236515E0,6.820192337E-3,7.881719255E-1,2.510194770E0
8.151498750E-1,-2.504860354E0,-7.695266166E-1,2.119268934E0,3.370133146E0
8.252228750E-1,-2.056634145E0,-1.413101285E0,1.757736175E0,3.052250925E0
8.352958750E-1,-1.559161808E0,-1.739878632E0,6.662697583E-1,2.429419393E0
8.453688750E-1,-1.017289224E0,-1.790795748E0,-5.831761461E-1,2.140542266E0
8.554418750E-1,-8.895445186E-1,-1.231275682E0,-9.411935592E-1,1.786945598E0
8.655148750E-1,-6.217344403E-1,-1.518977111E0,-2.673639357E-2,1.641511502E0
8.755878750E-1,-6.120841956E-1,-2.107178354E0,-8.469884831E-1,2.352070826E0
8.856608750E-1,-1.169696900E0,-1.340725911E0,-2.177059890E0,2.811641259E0
8.957338750E-1,-1.406426103E0,2.317821667E-1,-2.548691375E0,2.920202918E0
9.058068750E-1,-1.351273411E0,2.469583518E0,-3.151304251E0,4.225577010E0
9.158798750E-1,-1.365000919E0,1.630584962E0,-2.979532936E0,3.660553420E0
9.259528750E-1,-8.563095295E-1,1.046831404E0,-2.946982656E0,3.242503473E0
9.360248750E-1,-8.762444419E-1,-2.022620599E-1,-2.975527008E0,3.108452226E0
9.460978750E-1,-2.294434558E0,-2.214731015E0,-3.611433345E-1,3.209343846E0
9.561708750E-1,-3.532214683E0,-3.841911290E0,3.728594590E0,6.413987881E0
9.662438750E-1,-2.762888333E0,-4.400101407E0,2.916566609E0,5.958255208E0
9.763168750E-1,-1.442427995E0,-3.416120262E0,1.231370991E0,3.907268955E0
9.863898750E-1,-2.264012665E-1,-1.576320170E0,6.224852228E-1,1.709833519E0
9.964628750E-1,4.800716078E-1,5.133159524E-1,6.807550657E-1,9.784628123E-1
1.006535875E0,1.040236621E0,1.072512813E0,2.271258534E0,2.718637764E0
1.016608875E0,8.912416729E-1,9.106722629E-1,2.500321453E0,2.806286347E0
1.026681875E0,2.271774843E-1,2.205513465E0,3.201410796E0,3.894217551E0
1.036754875E0,-4.906398654E-3,2.685098730E0,6.159456384E0,6.719276911E0
1.046827875E0,8.278400213E-2,2.456857930E0,8.557475536E0,8.903560616E0
1.056900875E0,-1.374136609E-1,3.593789664E0,8.143482728E0,8.902275979E0
1.066973875E0,3.872265941E-1,1.625407399E0,8.471865283E0,8.635067748E0
1.077046875E0,1.433548705E0,9.960530135E-1,7.348560777E0,7.553047662E0
1.087119875E0,2.733398193E0,1.921667544E0,5.283634695E0,6.251485218E0
1.097192875E0,2.986578830E0,4.489194847E0,3.537952555E0,6.449002386E0
1.107265875E0,2.661349387E0,4.546064574E0,2.604721735E0,5.876568640E0
1.117338875E0,2.498914613E0,3.430149487E0,3.604538893E0,5.568051758E0
1.127411875E0,2.125962534E0,3.469049259E0,3.889830977E0,5.628925695E0
1.137484875E0,2.729677318E0,2.076145719E0,5.011992352E0,6.073021212E0
1.147557875E0,3.057515497E0,1.715341523E0,5.658631838E0,6.656644187E0
1.157626792E0,3.128804750E0,1.667277849E0,2.903900371E0,4.582779937E0
1.167699792E0,2.510540632E0,1.137040785E0,-4.477271497E-1,2.792156087E0
1.177772792E0,1.262566472E0,1.090186754E0,-2.302970324E0,2.843633866E0
1.187845792E0,6.365395904E-1,6.493663350E-1,-3.347974180E0,3.469263668E0
1.197918792E0,4.012745297E-1,2.073627323E-2,-4.408965493E0,4.427237058E0
1.207991792E0,-4.427114081E-1,1.458734125E-1,-5.005593159E0,5.027249280E0
1.218064792E0,-1.191391239E0,-1.250397831E-1,-4.944412572E0,5.087461422E0
1.228137792E0,-5.496821254E-1,-1.795533746E0,-4.635243384E0,5.001157176E0
1.238210792E0,-3.212407655E-1,-1.224802522E0,-4.087133574E0,4.278784606E0
1.248283792E0,-8.811865085E-1,9.568442166E-1,-3.702811877E0,3.924647285E0
1.258356792E0,-1.692544398E0,2.604870254E0,-3.485564427E0,4.668962942E0
1.268429792E0,-2.238646274E0,2.591365817E0,-2.429205862E0,4.198542016E0
1.278502792E0,-2.758407027E0,2.017125970E0,4.219958925E-1,3.443208829E0
1.288574792E0,-2.554600571E0,2.244810408E0,3.084019756E0,4.590897048E0
1.298647792E0,-6.434083146E-1,-1.808482406E0,5.113031654E0,5.461471923E0
1.308720792E0,2.723796773E-1,-3.545082650E0,6.792234460E0,7.666567070E0
1.318793792E0,8.682390189E-1,-2.165789674E0,6.842921049E0,7.229803067E0
1.328866792E0,1.991671579E0,-7.579336345E-1,4.513848170E0,4.991597377E0
1.338939792E0,1.294184121E0,3.138894998E-1,1.076071283E0,1.712123991E0
1.349012792E0,-2.815650684E-1,6.814687183E-1,-7.092362684E-1,1.023080928E0
1.359085792E0,-2.046681599E0,5.658306733E-1,-9.617243028E-1,2.331090636E0
1.369158792E0,-4.338553323E0,9.225371405E-1,-2.669839252E0,5.177080387E0
1.379231792E0,-5.428783053E0,8.378307932E-1,-4.065145997E0,6.833670892E0
1.389304792E0,-4.636233317E0,1.083169437E0,-3.331221030E0,5.810761478E0
1.399377792E0,-2.700814877E0,1.841227983E0,-2.572846515E0,4.159814981E0
1.409450792E0,-1.060983127E0,2.648985449E0,-2.472966132E0,3.776025768E0
1.419523792E0,4.292160344E-1,2.617051466E0,-3.325517071E0,4.253498392E0
1.429596792E0,1.482681981E0,2.223269266E0,-3.391908989E0,4.318138334E0
1.439669792E0,1.737553926E0,1.037898320E0,-1.639064595E0,2.604392311E0
1.449742792E0,2.602031431E0,-1.256205724E0,1.166385329E0,3.115938883E0
1.459815792E0,3.056423821E0,-1.862306757E0,4.387823131E0,5.662411576E0
1.469888792E0,2.259062412E0,-1.891731846E0,7.942399321E0,8.471346961E0
1.479961792E0,1.367169067E0,-1.007942011E0,7.303078794E0,7.498003616E0
1.490034792E0,1.199023610E0,2.818145983E-1,2.071935139E0,2.410392562E0
1.500107792E0,2.764317977E-1,7.709992379E-2,-3.975960463E-1,4.903483997E-1
1.510180792E0,-9.429869002E-1,-5.813480142E-1,-1.291994923E-1,1.115294722E0
1.520253792E0,-1.598779033E0,-9.586925215E-1,6.729718369E-1,1.981937648E0
1.530326792E0,-3.147048063E0,-1.423781516E0,1.162218311E0,3.644422686E0
1.540399792E0,-2.585746350E0,-1.406408269E0,1.362160342E0,3.243385454E0
1.550472792E0,-8.807543993E-1,-1.862042024E0,5.381613564E-1,2.128977796E0
1.560545792E0,2.039356792E-1,-2.235231500E0,-3.606621087E-1,2.273307453E0
1.570618792E0,3.978772974E-1,-1.158359733E-1,4.741203117E-1,6.296938832E-1
1.580691792E0,-1.279798216E0,1.560968013E0,6.148394036E-1,2.110102392E0
1.590764792E0,-2.134915498E0,2.343454398E0,-8.918780693E-1,3.293188302E0
1.600836792E0,-1.234974046E0,2.995651955E0,-1.978227661E0,3.796376721E0
1.610909792E0,-8.971312809E-1,2.768660120E0,-2.065765157E0,3.568992726E0
1.620982792E0,3.935176134E-1,1.176206897E0,-1.632958932E0,2.050578857E0
1.631055792E0,2.138419735E0,5.779165757E-1,-9.950605948E-1,2.428368201E0
1.641128792E0,2.319232015E0,1.399559133E0,2.591944984E-1,2.721173404E0
1.651201792E0,2.434733820E0,2.170884646E0,4.726725411E-1,3.296071639E0
1.661274792E0,2.275210667E0,1.452000764E0,-5.096930176E-2,2.699534713E0
1.671347792E0,-1.150059611E-1,-1.410898054E-1,-1.568477592E-1,2.402788460E-1
1.681420792E0,-3.787372556E0,-1.862616805E0,2.755002193E0,5.040195366E0
1.691493792E0,-4.867911696E0,-4.255469066E-1,4.788300978E0,6.841453113E0
1.701566792E0,-4.392912548E0,2.110263053E-1,3.918780541E0,5.890590266E0
1.711639792E0,-3.726863229E0,5.542321363E-1,2.148650608E0,4.337439593E0
1.721712792E0,-2.819597554E0,1.076350780E0,1.766920981E0,3.497237642E0
1.731785792E0,-2.332732067E0,1.563205158E0,2.927242748E0,4.056352963E0
1.741858792E0,-2.261011289E0,2.276231591E0,4.317843362E0,5.379328360E0
1.751931792E0,-1.954290329E0,2.953996975E0,4.528856803E0,5.749425429E0
1.762004792E0,-1.526267127E0,2.922555912E0,2.356673199E0,4.052743881E0
1.772077792E0,-1.330409376E0,1.783368614E0,-1.459011283E0,2.660659062E0
1.782150792E0,-1.163759637E0,9.939214110E-2,-6.905718391E0,7.003796241E0
1.792223792E0,-1.137665852E0,-7.692322093E-1,-7.696636169E0,7.818197369E0
1.802296792E0,-8.687296003E-1,-1.374668705E-1,-2.968161563E0,3.095734375E0
1.812369792E0,-1.289992252E0,7.874521333E-1,2.058554517E0,2.553782992E0
1.822442792E0,-3.593226870E0,-1.519842206E0,9.159734656E0,9.956000132E0
1.832515792E0,-1.721672888E0,-7.604496914E-1,5.707958364E0,6.010260390E0
1.842588792E0,4.932442153E-1,6.161076647E-1,6.440845451E-1,1.018687102E0
1.852661792E0,-4.982646346E-2,9.184554917E-1,-4.295668674E-1,1.015170360E0
1.862734792E0,-1.277733564E0,1.820134737E0,-4.355228412E-1,2.266092158E0
1.872806792E0,-1.743975922E0,3.010738356E0,1.765895672E-1,3.483845769E0
1.882879792E0,-2.014226629E0,4.189870908E0,9.632914297E-1,4.747637045E0
1.892952792E0,-2.199302698E0,4.663067359E0,-6.182179248E-1,5.192621973E0
1.903025792E0,-1.641811909E0,5.061809460E0,-6.106457075E-1,5.356337324E0
1.913098792E0,-1.035338994E0,5.918637053E0,2.688096013E0,6.582404695E0
1.923171792E0,-1.056825465E0,6.700051936E0,3.523141558E0,7.643304419E0
1.933244792E0,-2.212395491E0,6.427449480E0,2.253989367E0,7.161513017E0
1.943317792E0,-3.089737748E0,5.574946488E0,1.018926444E0,6.454821360E0
1.953390792E0,-4.427494150E0,4.021427827E0,-1.637803350E0,6.201369690E0
1.963463792E0,-4.621656209E0,3.907300118E0,-1.399243383E0,6.211648925E0
1.973536792E0,-3.441216220E0,3.893699495E0,1.020112552E-2,5.196438096E0
1.983609792E0,-1.417145365E0,-1.483903465E0,1.676740982E-1,2.058733854E0
1.993682792E0,-3.681866712E-1,-1.549830003E1,4.442104003E0,1.612653568E1
2.003755792E0,2.254882822E0,-3.877040543E1,9.713660690E0,4.003228744E1
2.013828792E0,2.593037243E0,-3.822499119E1,6.599079877E0,3.887700669E1
2.023901792E0,4.524282746E-1,-2.035594693E1,1.245060347E0,2.039900591E1
2.033974792E0,-5.510632378E-1,-6.561429656E0,-2.994183719E-1,6.591333794E0
2.044047792E0,-1.189177703E0,-1.594032848E-1,2.603779748E-2,1.200096239E0
2.054120792E0,-1.815678866E0,3.277932723E0,8.456063475E-1,3.841429782E0
2.064193792E0,-2.158387099E0,5.046675696E0,1.075394321E0,5.593214049E0
2.074266792E0,-2.266108014E0,4.952936643E0,9.268550169E-1,5.525023724E0
2.084339792E0,-2.162095111E0,3.243481513E0,-9.632024058E-1,4.015294070E0
2.094412792E0,-1.963089804E0,1.026225523E0,-3.855552260E0,4.446587864E0
2.104485792E0,-9.667453068E-1,-3.257285035E-1,-3.119294254E0,3.281873274E0
2.114558792E0,-2.283220768E-1,-1.080656669E0,-1.876251050E0,2.177215610E0
2.124631792E0,-2.659346569E-2,-9.472647232E-1,-1.162200769E0,1.499576039E0
2.134704792E0,2.666257247E-3,-2.470004225E-1,-7.704748157E-1,8.091030585E-1
2.144777792E0,2.311860065E-1,5.922820151E-2,-3.407477347E-1,4.160095770E-1
2.154854042E0,4.841853433E-1,1.558166027E-1,-5.625496544E-2,5.117410297E-1
2.164927042E0,5.951406092E-1,1.272354126E-3,-1.143553121E-1,6.060289605E-1
2.175000042E0,6.084568023E-1,-5.624144375E-1,-3.688191207E-1,9.069494052E-1
2.185073042E0,5.416982641E-1,-9.435330302E-1,-4.973420171E-1,1.196261121E0
2.195146042E0,4.779134005E-1,-6.767742813E-1,-1.137985110E-1,8.362862831E-1
2.205219042E0,3.242739355E-1,-3.569169670E-1,3.916948901E-1,6.212633850E-1
2.215292042E0,1.937919295E-1,2.775556326E-2,5.976737326E-1,6.289193700E-1
2.225365042E0,9.333530277E-2,4.680859852E-1,3.497091043E-1,5.917029879E-1
2.235438042E0,-7.317995042E-2,6.785342932E-1,-2.875590491E-1,7.405770040E-1
2.245511042E0,-1.620521466E-1,6.742716730E-1,-4.576406653E-1,8.308659132E-1
2.255584042E0,-4.367731221E-2,3.213173640E-1,-1.846223990E-1,3.731460655E-1
2.265657042E0,8.629291624E-2,-1.346122599E-1,-9.599490881E-2,1.864991968E-1
2.275730042E0,1.175555664E-1,-4.972858107E-1,-2.521162976E-1,5.698026994E-1
2.285803042E0,-1.414594225E-1,-6.444356704E-1,-6.816931053E-1,9.486904612E-1
2.295876042E0,-6.325968859E-1,-3.950068992E-1,-8.093751720E-1,1.100589587E0
2.305949042E0,-1.147047198E0,-8.985006988E-2,-6.134852616E-1,1.303899719E0
2.316022042E0,-1.485583370E0,-2.143922549E-1,-3.106439296E-1,1.532782319E0
2.326095042E0,-1.721843919E0,-5.392191178E-1,-4.781034350E-2,1.804934782E0
2.336168042E0,-1.731882273E0,-2.584896165E-1,1.676177457E-2,1.751146494E0
2.346241042E0,-1.286875394E0,-2.547678638E-1,4.613920927E-1,1.390624898E0
2.356314042E0,-7.582409057E-1,-5.472216171E-1,6.559628713E-1,1.142220670E0
2.366387042E0,-4.521523956E-1,-9.983518463E-1,3.288017269E-1,1.144228462E0
2.376460042E0,-1.865213554E-1,-1.266259573E0,-1.755815072E-1,1.291910364E0
2.386533042E0,-8.723314852E-4,-9.655974984E-1,-3.481465821E-1,1.026443049E0
2.396606042E0,2.030979194E-2,-5.461346197E-1,-5.165563332E-1,7.520013004E-1
2.406678042E0,3.225433789E-2,-3.314505887E-1,-9.383893807E-1,9.957281079E-1
2.416751042E0,1.182800364E-1,-5.110641897E-2,-1.198891609E0,1.205795639E0
2.426824042E0,3.223146066E-1,3.725003815E-1,-6.020386791E-1,7.778777610E-1
2.436897042E0,-1.422759131E-1,2.889419156E-1,5.465152735E-1,6.343570053E-1
2.446970042E0,-3.696262557E-1,5.202074808E-1,-7.943917550E-2,6.430785135E-1
2.457043042E0,-1.639654286E-2,7.556666690E-1,-7.473397954E-1,1.062928846E0
2.467116042E0,2.155064419E-1,4.697080028E-1,-4.710587096E-1,6.992602822E-1
2.477189042E0,2.711963470E-1,3.328398871E-1,-1.402935608E-1,4.516770221E-1
2.487262042E0,8.755379520E-2,3.909705663E-1,-6.017844714E-2,4.051482398E-1
2.497335042E0,-3.119262971E-2,2.915684849E-1,8.008280776E-2,3.039710803E-1
2.507408042E0,-8.540472418E-2,9.772334576E-2,2.799529910E-1,3.085733242E-1
2.517481042E0,-2.065561089E-1,-1.309869862E-1,5.009543538E-1,5.574749154E-1
2.527554042E0,-1.651226657E-1,-4.447772294E-1,9.130635548E-1,1.028969064E0
2.537627042E0,-9.806606568E-2,-6.072292525E-1,1.292560934E0,1.431453138E0
2.547700042E0,-5.586495616E-2,-2.331477839E-1,1.000039864E0,1.028376640E0
2.557773042E0,-3.582384378E-2,-2.332688212E-2,1.035780458E0,1.036662264E0
2.567846042E0,-2.575077228E-1,-2.268193424E-2,1.104653569E0,1.134497336E0
2.577919042E0,-5.937166294E-1,1.688383520E-2,7.462226117E-1,9.537466573E-1
2.587992042E0,-3.363343294E-1,-8.366196156E-3,8.669793825E-1,9.299699049E-1
2.598065042E0,-3.783528596E-1,5.659286141E-2,9.248470831E-1,1.000847524E0
2.608138042E0,-5.206400286E-1,3.211466253E-1,9.049187489E-1,1.092281620E0
2.618211042E0,-6.775278412E-1,1.653990197E-1,7.533741219E-1,1.026632056E0
2.628284042E0,-9.884934407E-1,-7.012425399E-1,7.357797039E-1,1.417826560E0
2.638357042E0,-1.230651930E0,-6.660177433E-1,-8.692807004E-2,1.402012945E0
2.648429042E0,-7.919827022E-1,4.509021878E-2,-8.092325000E-1,1.133193261E0
2.658502042E0,9.290480152E-2,-3.683435959E-1,-3.951128800E-1,5.481081050E-1
2.668575042E0,5.477007964E-1,-7.001748383E-1,-1.663217103E-1,9.043693261E-1
2.678648042E0,8.498207282E-1,-5.734738612E-1,9.621425249E-2,1.029720701E0
2.688721042E0,9.530139980E-1,-3.520462364E-1,2.629668295E-1,1.049439749E0
2.698794042E0,7.712207012E-1,-1.138248235E-1,1.557044093E-1,7.949725300E-1
2.708867042E0,4.050743428E-1,-5.478841066E-2,1.964950973E-1,4.535386603E-1
2.718940042E0,2.165896386E-2,8.902970552E-2,2.435716152E-1,2.602355297E-1
2.729013042E0,-2.534325059E-1,3.559609473E-1,3.916487702E-1,5.867921184E-1
2.739086042E0,-2.114201152E-1,5.558439213E-1,4.278957331E-1,7.326361228E-1
2.749159042E0,6.106554285E-2,7.366380751E-1,4.957784716E-1,8.900342393E-1
2.759232042E0,3.546695897E-1,8.092797893E-1,5.383402812E-1,1.034666397E0
2.769305042E0,6.342879738E-1,7.714640915E-1,5.098619290E-1,1.121355102E0
2.779378042E0,8.633120088E-1,6.401864988E-1,3.006526460E-1,1.116036913E0
2.789451042E0,1.061368020E0,5.230205762E-1,7.422097407E-2,1.185563727E0
2.799524042E0,1.183495598E0,4.667779630E-1,-5.757994451E-2,1.273522260E0
2.809597042E0,1.236035169E0,4.801230633E-1,-1.377014170E-1,1.333140194E0
2.819670042E0,1.196826372E0,4.406116730E-1,-3.891387067E-1,1.333402019E0
2.829743042E0,1.009208079E0,4.301884264E-1,-7.603988206E-1,1.334829351E0
2.839816042E0,7.463023531E-1,5.130042958E-1,-1.018095555E0,1.362592811E0
2.849889042E0,6.567180392E-1,6.341866708E-1,-1.160553024E0,1.476602397E0
2.859961042E0,7.475644746E-1,7.258441150E-1,-1.232224685E0,1.613716207E0
2.870034042E0,9.315295735E-1,8.102130049E-1,-1.237130499E0,1.747765525E0
2.880107042E0,1.080566037E0,8.188563591E-1,-1.157382079E0,1.782605389E0
2.890180042E0,1.144713355E0,8.568252540E-1,-9.605857037E-1,1.722568743E0
2.900253042E0,1.183799361E0,8.643243080E-1,-7.197455422E-1,1.632933275E0
2.910326042E0,1.228857858E0,7.815762663E-1,-3.850100608E-1,1.506381705E0
2.920399042E0,1.343443551E0,5.846595848E-1,4.355349742E-2,1.465798182E0
2.930472042E0,1.641643070E0,1.742493653E-1,-2.245627557E-1,1.666068199E0
2.940545042E0,1.919610932E0,8.055065811E-2,-8.490822248E-1,2.100555917E0
2.950618042E0,2.136408585E0,-4.839506507E-2,-1.458089177E0,2.587007494E0
2.960691042E0,2.242282365E0,5.982286334E-3,-1.679095802E0,2.801290543E0
2.970764042E0,2.182467541E0,1.317594033E-1,-1.720756629E0,2.782360236E0
2.980837042E0,1.773602741E0,2.021867770E-1,-1.703612008E0,2.467557507E0
2.990910042E0,1.168030882E0,3.633401334E-2,-1.687993364E0,2.053031393E0
3.000983042E0,7.136028229E-1,-3.773968399E-2,-1.926704481E0,2.054955822E0
3.011056042E0,3.302210654E-1,5.943694711E-3,-2.202475251E0,2.227100921E0
3.021129042E0,8.234458387E-2,-1.225137860E-1,-2.177474458E0,2.182472284E0
3.031202042E0,-2.080439329E-3,-4.367969495E-1,-1.910242669E0,1.959546620E0
3.041275042E0,7.438447684E-2,-6.473733115E-1,-1.438714428E0,1.579406363E0
3.051348042E0,5.057483397E-1,-8.937884277E-1,-6.616359861E-1,1.221638782E0
3.061421042E0,1.274855857E0,-1.108658985E0,-7.654999316E-2,1.691225030E0
3.071494042E0,1.990393670E0,-1.181024711E0,2.533341265E-1,2.328232056E0
3.081566042E0,2.412961712E0,-1.325125247E0,5.502949136E-1,2.807341383E0
3.091639042E0,2.583293736E0,-1.450427570E0,5.999570704E-1,3.022762834E0
3.101712042E0,2.403928641E0,-1.169561829E0,1.915699875E-1,2.680195300E0
3.111785042E0,1.912889557E0,-8.590501195E-1,-2.117365958E-1,2.107592454E0
3.121858042E0,1.021137130E0,-9.618938720E-1,-4.257417651E-1,1.466020774E0
3.131931042E0,1.165122038E-1,-9.515016156E-1,-5.612444097E-1,1.110822085E0
3.142004042E0,-5.019331777E-1,-1.100287526E0,-5.716863674E-1,1.337682645E0
3.152077417E0,-8.633146401E-1,-1.416945829E0,-1.928050657E-1,1.670395595E0
3.162150417E0,-9.466107121E-1,-1.936003162E0,-4.410741878E-1,2.199710555E0
3.172223417E0,-9.171598949E-1,-2.326645115E0,2.247362718E-2,2.500992768E0
3.182296417E0,-7.821212268E-1,-2.213883315E0,5.959061193E-1,2.422415540E0
3.192369417E0,-6.293412293E-1,-1.638165293E0,6.912946719E-1,1.886145337E0
3.202442417E0,-5.522854520E-1,-1.115073380E0,1.444034225E-1,1.252701167E0
3.212515417E0,-2.669780195E-1,-9.779292762E-1,-7.052896902E-2,1.016167933E0
3.222588417E0,3.473137924E-1,-1.142262349E0,-6.833113953E-1,1.375610630E0
3.232661417E0,6.908507220E-1,-4.029801625E-1,-1.696937996E-1,8.175963045E-1
3.242734417E0,9.613416025E-1,2.211259085E-1,7.359323893E-1,1.230719637E0
3.252807417E0,7.755520262E-1,6.624965501E-1,9.107243031E-1,1.367406809E0
3.262880417E0,6.630306932E-1,7.095368153E-1,-1.631870180E-1,9.847244261E-1
3.272953417E0,4.458259276E-1,4.103821528E-1,-3.680997304E-1,7.089934277E-1
3.283026417E0,-9.403229088E-2,1.394210100E-1,2.748998638E-1,3.222580098E-1
3.293098417E0,-4.767158908E-1,-2.998510659E-2,-3.417317480E-1,5.873140001E-1
3.303171417E0,-9.677013266E-1,-1.920816189E-1,1.419762433E-1,9.967439287E-1
3.313244417E0,-1.326683238E0,-6.533906811E-1,1.474778885E0,2.088535505E0
3.323317417E0,-1.578612278E0,-1.069082106E0,1.850291752E0,2.656789950E0
3.333390417E0,-1.625837316E0,-9.755102831E-1,1.859722141E0,2.655848966E0
3.343463417E0,-1.554746137E0,-8.392748362E-1,1.875639431E0,2.576750100E0
3.353536417E0,-1.596746248E0,-8.173436844E-1,2.024578393E0,2.704915331E0
3.363609417E0,-1.553635166E0,-9.758605313E-1,1.954594384E0,2.680769519E0
3.373682417E0,-1.488034084E0,-8.999847221E-1,1.362637475E0,2.209298265E0
3.383755417E0,-1.368796347E0,-6.569048578E-1,9.575879093E-1,1.795021458E0
3.393828417E0,-9.468979566E-1,-4.668124616E-1,1.719489684E0,2.017715140E0
3.403901417E0,-6.380781390E-1,-3.463305831E-1,1.102119459E0,1.319755995E0
3.413974417E0,-4.207852265E-1,-2.256253409E-1,3.928253762E-1,6.182869702E-1
3.424047417E0,-1.922573277E-1,-2.086830336E-1,3.370698360E-1,4.405990955E-1
3.434120417E0,-2.435229371E-1,-1.535069525E-2,2.773075645E-1,3.693758927E-1
3.444193417E0,-4.009602419E-1,3.012649226E-1,4.289597802E-1,6.599516362E-1
3.454266417E0,-5.081057909E-1,5.669197172E-1,6.832819399E-1,1.022958293E0
3.464339417E0,-5.608812976E-1,7.797495961E-1,6.641020493E-1,1.167745175E0
3.474412417E0,-6.895931321E-1,9.460537648E-1,3.567478363E-1,1.223856786E0
3.484485417E0,-8.544954309E-1,9.311088663E-1,4.496181393E-1,1.341373413E0
3.494557417E0,-1.013380945E0,8.312015855E-1,8.925130038E-1,1.585691167E0
3.504630417E0,-1.055184444E0,7.431507039E-1,1.054700733E0,1.666757575E0
3.514703417E0,-9.390870997E-1,5.184819674E-1,7.551455359E-1,1.311850949E0
3.524776417E0,-6.532428928E-1,6.704049093E-1,4.247801904E-1,1.027914019E0
3.534849417E0,-4.241893293E-1,7.304066974E-1,3.033396609E-1,8.974661445E-1
3.544922417E0,-2.811515240E-1,8.392140251E-1,4.162799469E-1,9.780671519E-1
3.554995417E0,-1.816710900E-1,8.295637804E-1,1.005303747E0,1.315984831E0
3.565068417E0,-1.048563641E-1,9.236776400E-1,1.066048132E0,1.414437648E0
3.575141417E0,-9.405451030E-2,1.153473215E0,6.594608219E-1,1.332004236E0
3.585214417E0,-1.229510115E-1,1.199420051E0,8.138809633E-1,1.454691594E0
3.595287417E0,-2.945394552E-1,1.296601360E0,7.120746531E-1,1.508303315E0
3.605360417E0,-4.838964178E-1,1.364046069E0,6.769532061E-1,1.597824479E0
3.615433417E0,-6.782125501E-1,1.357719966E0,5.837545820E-1,1.626082772E0
3.625506417E0,-8.376238748E-1,1.367224615E0,3.281068584E-1,1.636634050E0
3.635579417E0,-8.850563420E-1,1.267840075E0,1.801264018E-1,1.556659470E0
3.645652417E0,-7.775624451E-1,1.054771045E0,-7.264536873E-2,1.312411012E0
3.655725417E0,-5.141768087E-1,8.077881646E-1,-5.941072235E-1,1.126881938E0
3.665798417E0,-1.824098857E-1,6.488234210E-1,-1.086978386E0,1.278971153E0
3.675871417E0,2.425761268E-1,5.281614482E-1,-1.291252327E0,1.416026223E0
3.685944417E0,6.766066124E-1,4.928284782E-1,-1.275135354E0,1.525334910E0
3.696016417E0,1.071002624E0,6.097499871E-1,-1.244431332E0,1.751414002E0
3.706089417E0,1.392948417E0,7.578400791E-1,-1.186701626E0,1.980628089E0
3.716162417E0,1.636781988E0,9.172199750E-1,-1.218847133E0,2.237394934E0
3.726235417E0,1.764781047E0,1.051559755E0,-1.325616121E0,2.444890214E0
3.736308417E0,1.845432715E0,1.254042985E0,-1.157273467E0,2.513469235E0
3.746381417E0,1.905335393E0,1.368157831E0,-8.443144052E-1,2.492995312E0
3.756454417E0,1.859605489E0,1.422373214E0,-8.406141409E-1,2.487551059E0
3.766527417E0,1.613947003E0,1.280401649E0,-1.045636525E0,2.310326612E0
3.776600417E0,1.268510751E0,9.718727303E-1,-1.187772105E0,1.991094850E0
3.786673417E0,9.735573131E-1,8.034928000E-1,-1.325175826E0,1.830165427E0
3.796746417E0,8.192820364E-1,8.480275333E-1,-1.491275634E0,1.901125133E0
3.806819417E0,9.725420903E-1,9.557502025E-1,-1.607685219E0,2.108067440E0
3.816892417E0,1.180800324E0,1.085449047E0,-1.774610070E0,2.392013783E0
3.826965417E0,1.374897770E0,1.109049579E0,-1.920671178E0,2.609465965E0
3.837038417E0,1.449697253E0,1.121940935E0,-2.127151419E0,2.808050347E0
3.847111417E0,1.387831373E0,1.074016571E0,-2.406891572E0,2.978710216E0
3.857184417E0,1.274897372E0,8.869612187E-1,-2.574296333E0,3.006503804E0
3.867257417E0,1.066957228E0,5.985478914E-1,-2.395033565E0,2.689394556E0
3.877329417E0,7.987080234E-1,3.799403787E-2,-1.909775330E0,2.070415385E0
3.887402417E0,6.307887076E-1,-8.627362043E-1,-1.492416426E0,1.835623856E0
3.897475417E0,4.183555622E-1,-1.833622509E0,-1.019195416E0,2.139147536E0
3.907548417E0,6.808468670E-2,-2.860223424E0,-5.473508406E-1,2.912920614E0
3.917621417E0,-3.423664632E-1,-3.973308751E0,-4.149290939E-1,4.009559001E0
3.927694417E0,-5.518301001E-1,-5.180857016E0,-2.831981957E-1,5.217853687E0
3.937767417E0,-5.451230514E-1,-6.336391375E0,-2.131894827E-3,6.359797115E0
3.947840417E0,-8.665230073E-1,-7.026393812E0,1.239809985E-1,7.080709245E0
3.957913417E0,-1.612864975E0,-6.261276873E0,2.363663837E-2,6.465715753E0
3.967986417E0,-2.645449930E0,-3.720999057E0,-2.087876257E-1,4.570320731E0
3.978059417E0,-3.606411172E0,-7.199547994E-1,-5.718796910E-1,3.721771464E0
3.988132417E0,-4.243636056E0,1.576045643E0,-9.971197649E-1,4.635365645E0
3.998205417E0,-4.368550416E0,2.772872454E0,-1.156511428E0,5.301940500E0
4.008278417E0,-4.352938643E0,3.243151730E0,-3.823997176E-1,5.441721925E0
4.018351417E0,-4.232737723E0,3.889831561E0,5.755215561E-1,5.777376850E0
4.028424417E0,-4.129894555E0,4.669913279E0,1.197992819E0,6.348173428E0
4.038497417E0,-4.168901038E0,4.687439724E0,1.700841597E0,6.499591462E0
4.048570417E0,-4.106924061E0,3.634821038E0,2.112424768E0,5.877166632E0
4.058642417E0,-3.699911073E0,1.959248183E0,2.584461132E0,4.920105155E0
4.068715417E0,-3.019416794E0,4.367969495E-1,2.560920242E0,3.983212502E0
4.078788417E0,-1.999730504E0,-1.245226554E0,2.122008355E0,3.170556846E0
4.088861417E0,-9.874833342E-1,-2.936407381E0,1.447729665E0,3.419580797E0
4.098934417E0,2.134116769E-2,-3.781377990E0,8.638665441E-1,3.878858125E0
4.109007417E0,6.372095351E-1,-3.048668075E0,9.207260386E-1,3.247791474E0
4.119080417E0,6.830360645E-1,-1.055734667E0,1.619844797E0,2.050612376E0
4.129153417E0,6.389615071E-1,1.995467591E-1,2.882311281E0,2.959021635E0
4.139226417E0,7.796697816E-1,7.483401078E-1,3.447652835E0,3.613060746E0
4.149299417E0,8.290799233E-1,1.027162247E0,3.264092363E0,3.520899708E0
4.159372000E0,9.059007888E-1,9.521945107E-1,3.106369568E0,3.372960498E0
4.169445000E0,9.923086028E-1,8.342994404E-1,3.072876717E0,3.335161651E0
4.179518000E0,1.031720444E0,8.041716617E-1,2.904446501E0,3.185427540E0
4.189591000E0,9.446869782E-1,4.626106524E-1,2.192176112E0,2.431476549E0
4.199664000E0,6.286623676E-1,-1.344625711E-2,1.889486808E0,1.991370777E0
4.209737000E0,1.949514323E-1,-5.743655616E-1,1.431185553E0,1.554411125E0
4.219810000E0,-1.405556622E-1,-1.143324788E0,7.270539039E-1,1.362187521E0
4.229883000E0,-5.326458241E-1,-1.503650097E0,-4.391960621E-1,1.654559871E0
4.239955000E0,-1.247140347E0,-1.602983181E0,-2.923976786E0,3.560134038E0
4.250028000E0,-2.072250742E0,-1.205389473E0,-4.230475727E0,4.862521136E0
4.260101000E0,-2.637710556E0,-7.883871031E-1,-3.506775202E0,4.458311734E0
4.270174000E0,-2.600199498E0,-3.859273428E-1,-1.371414145E0,2.964920589E0
4.280247000E0,-1.793629016E0,3.509615779E-2,4.384417713E-1,1.846772312E0
4.290320000E0,-7.618210097E-1,-1.466008061E-1,6.492561880E-1,1.011630686E0
4.300393000E0,1.994111037E-1,-5.163822323E-1,1.621355717E0,1.713245388E0
4.310466000E0,9.163399690E-1,-6.055019850E-1,2.992738872E0,3.187914295E0
4.320539000E0,1.364908972E0,-1.568199849E-1,3.250591142E0,3.529010029E0
4.330612000E0,1.746799397E0,3.440127468E-1,2.497791363E0,3.067346507E0
4.340685000E0,2.103056359E0,6.853960007E-1,1.714802994E0,2.798778847E0
4.350758000E0,2.355292379E0,9.683427662E-1,1.049640114E0,2.754420859E0
4.360831000E0,2.509959419E0,1.284194153E0,4.675719418E-1,2.857914349E0
4.370904000E0,2.513856588E0,1.631845037E0,-1.081734896E-2,2.997083613E0
4.380977000E0,2.443451872E0,1.945200248E0,-2.928379154E-1,3.136879835E0
4.391050000E0,2.329389944E0,2.146808150E0,-3.054977951E-1,3.182478853E0
4.401123000E0,2.174323978E0,1.948823767E0,-2.055472449E-1,2.927088742E0
4.411196000E0,1.803316537E0,1.329845120E0,-1.285258200E-1,2.244316702E0
4.421268000E0,1.420959796E0,8.529386097E-1,-1.910116515E-1,1.668267504E0
4.431341000E0,1.279613152E0,7.524296504E-1,-9.311398566E-2,1.487356854E0
4.441414000E0,1.229605863E0,6.587022918E-1,7.171770796E-2,1.396768670E0
4.451487000E0,1.309111770E0,4.993229806E-1,2.354346299E-1,1.420748581E0
4.461560000E0,1.298032612E0,5.288157517E-1,1.515106400E-1,1.409783755E0
4.471633000E0,1.199132222E0,7.357071984E-1,-7.360080376E-2,1.408758406E0
4.481706000E0,1.005336784E0,1.015698781E0,-2.579429018E-1,1.452198541E0
4.491779000E0,7.531805791E-1,1.014638096E0,-4.592642909E-1,1.344505537E0
4.501852000E0,5.035765377E-1,6.535485560E-1,-6.885610986E-1,1.074630835E0
4.511925000E0,4.135593836E-1,2.918807262E-1,-6.937879246E-1,8.588174465E-1
4.521998000E0,5.049542879E-1,1.265776008E-1,-9.623006921E-1,1.094085620E0
4.532071000E0,1.019913893E0,-6.096365511E-2,-1.388128557E0,1.723613010E0
4.542144000E0,1.801330968E0,-5.806051254E-2,-1.707423954E0,2.482631837E0
4.552217000E0,2.565368804E0,-8.061556220E-2,-1.669030551E0,3.061581119E0
4.562290000E0,3.214363256E0,-3.070676994E-1,-1.537096170E0,3.576183210E0
4.572363000E0,3.696539861E0,-7.289291060E-1,-1.422137133E0,4.027184949E0
4.582435000E0,3.973256711E0,-9.880057830E-1,-1.281049520E0,4.289989766E0
4.592508000E0,4.033715751E0,-9.195992070E-1,-9.697618854E-1,4.249348606E0
4.602581000E0,3.957234170E0,-7.276655227E-1,-7.138093758E-1,4.086407128E0
4.612654000E0,3.864148836E0,-5.346138507E-1,-6.244833626E-1,3.950624972E0
4.622727000E0,3.794495341E0,-3.456429505E-1,-6.855076826E-1,3.871380210E0
4.632800000E0,3.844458630E0,-1.791961098E-1,-5.995711541E-1,3.895055708E0
4.642873000E0,4.009091664E0,-1.724776590E-1,-3.872172385E-1,4.031439161E0
4.652946000E0,4.223270496E0,-3.572227764E-1,-2.387143332E-1,4.245068471E0
4.663019000E0,4.397721005E0,-7.483348453E-1,-7.730384544E-2,4.461606321E0
4.673092000E0,4.598662618E0,-1.428572432E0,5.003936058E-1,4.841374890E0
4.683165000E0,4.685217782E0,-1.905071976E0,4.448128974E-1,5.077245652E0
4.693238000E0,4.619203886E0,-2.068811556E0,1.300325744E-1,5.062996570E0
4.703311000E0,4.570745087E0,-2.219769707E0,1.937569924E-1,5.084941492E0
4.713384000E0,4.458728515E0,-2.623118829E0,5.564169484E-1,5.202942646E0
4.723457000E0,4.001429181E0,-3.295167975E0,3.939251643E-1,5.198532919E0
4.733530000E0,3.090673302E0,-4.058057125E0,-1.275125706E-1,5.102582537E0
4.743603000E0,1.714692628E0,-4.423967695E0,-4.040110997E-1,4.761815404E0
4.753676000E0,-1.568153071E-1,-3.857395302E0,-8.380687018E-1,3.950499805E0
4.763749000E0,-1.971858142E0,-2.803915322E0,-1.707534320E0,3.829600387E0
4.773821000E0,-3.157378923E0,-1.922007267E0,-2.791225694E0,4.631856483E0
4.783894000E0,-3.879293125E0,-1.191759614E0,-3.307237798E0,5.235172201E0
4.793967000E0,-4.416047056E0,-5.716834438E-1,-2.824105173E0,5.272936904E0
4.804040000E0,-4.922238761E0,-6.655528897E-1,-2.622558666E0,5.616868258E0
4.814113000E0,-5.031971118E0,-1.409799947E0,-2.864299518E0,5.959234930E0
4.824186000E0,-4.908165098E0,-2.369239157E0,-1.585425746E0,5.675998028E0
4.834259000E0,-4.873352822E0,-3.282426308E0,8.982457602E-1,5.943966323E0
4.844332000E0,-4.881383973E0,-4.042455000E0,2.658091611E0,6.872758029E0
4.854405000E0,-4.603907278E0,-3.542802821E0,3.831050087E0,6.958761299E0
4.864478000E0,-3.686816234E0,-1.851923125E0,5.033910055E0,6.508646837E0
4.874551000E0,-2.254927992E0,-1.149593003E0,4.427579520E0,5.099973012E0
4.884624000E0,-9.258355549E-1,-9.784297979E-1,3.837929921E0,4.067456505E0
4.894697000E0,1.774469152E-1,-1.197997423E0,3.819920497E0,4.007303063E0
4.904770000E0,6.830525829E-1,-1.203752838E0,3.193537520E0,3.480555073E0
4.914843000E0,1.050537954E0,-9.076574385E-1,1.373141267E0,1.952687624E0
4.924916000E0,1.535385129E0,-9.212808663E-1,-2.758403519E-1,1.811699155E0
4.934989000E0,1.737983404E0,-1.039297559E0,-1.033173477E0,2.273361643E0
4.945062000E0,9.081142522E-1,-3.319540340E-1,-4.068017565E-1,1.048976952E0
4.955135000E0,-5.193268901E-1,4.755680823E-1,7.158544394E-1,1.004147897E0
4.965208000E0,-1.702470924E0,7.638135946E-1,1.765300426E0,2.568677490E0
4.975281000E0,-2.319723766E0,4.768632406E-1,3.036515806E0,3.850836940E0
4.985353000E0,-2.640766018E0,5.693135673E-1,2.594228614E0,3.745368500E0
4.995426000E0,-2.594100560E0,6.795400143E-1,2.157743175E0,3.441945373E0
5.005499000E0,-2.481548090E0,7.353534418E-1,2.023129307E0,3.285099359E0
5.015572000E0,-2.216366628E0,8.944783992E-1,2.405066802E0,3.390681194E0
5.025645000E0,-2.004034347E0,1.458110812E0,2.810890173E0,3.747445045E0
5.035718000E0,-1.950105477E0,1.559048372E0,2.703632065E0,3.680104556E0
5.045791000E0,-2.121643781E0,1.966914468E0,2.142449344E0,3.600029728E0
5.055864000E0,-2.421401876E0,2.261132911E0,2.077348783E0,3.910407530E0
5.065937000E0,-2.900026590E0,2.532017455E0,2.097347138E0,4.384077056E0
5.076010000E0,-3.362180575E0,2.705202627E0,1.980786987E0,4.748251948E0
5.086083000E0,-3.782106261E0,2.741233170E0,1.916525795E0,5.048936342E0
5.096156000E0,-4.029062245E0,2.694898079E0,2.130011146E0,5.294597786E0
5.106229000E0,-3.940550895E0,2.740046770E0,1.923086955E0,5.170499115E0
5.116302000E0,-3.573582856E0,2.894657677E0,1.612470873E0,4.873356114E0
5.126375000E0,-3.014371816E0,2.886489701E0,1.520104162E0,4.441731296E0
5.136448000E0,-2.510347382E0,2.760261179E0,1.515127012E0,4.026971022E0
5.146521000E0,-1.989133595E0,2.754008752E0,1.204924327E0,3.604588645E0
5.156590125E0,-1.398978212E0,2.815231438E0,1.010969845E0,3.302230779E0
5.166663125E0,-7.288130388E-1,2.741081727E0,1.199478815E0,3.079520565E0
5.176736125E0,-5.060765147E-3,2.578150232E0,1.208917391E0,2.847519182E0
5.186809125E0,6.895852384E-1,2.542672836E0,8.420186421E-1,2.765810613E0
5.196882125E0,1.198901111E0,2.538696145E0,3.981392527E-1,2.835640466E0
5.206955125E0,1.477787277E0,2.343557017E0,8.341842502E-2,2.771835738E0
5.217027125E0,1.675833056E0,1.830669081E0,-4.812666325E-1,2.528118527E0
5.227100125E0,2.036014816E0,1.092662172E0,-1.273620925E0,2.638442195E0
5.237173125E0,2.718024986E0,1.180406660E-1,-1.685031311E0,3.200144363E0
5.247246125E0,3.688009358E0,-1.142479865E0,-2.039116764E0,4.366310851E0
5.257319125E0,4.601185399E0,-2.165653726E0,-2.456557091E0,5.647622144E0
5.267392125E0,5.163401908E0,-2.460093779E0,-2.791003500E0,6.364155970E0
5.277465125E0,5.062913414E0,-2.118298881E0,-3.252830918E0,6.379748535E0
5.287538125E0,4.150553937E0,-1.576193578E0,-3.929080997E0,5.928672841E0
5.297611125E0,2.981204947E0,-1.064351124E0,-4.326688153E0,5.361031302E0
5.307684125E0,2.283854606E0,-6.745891768E-1,-4.421062213E0,5.021638529E0
5.317757125E0,1.947723029E0,-5.407850021E-1,-4.667824069E0,5.086713571E0
5.327830125E0,1.609935228E0,-3.526865065E-1,-4.836229727E0,5.109344105E0
5.337903125E0,1.209940361E0,1.631525195E-1,-4.214902253E0,4.388163104E0
5.347976125E0,5.260143507E-1,9.587837380E-1,-2.627903021E0,2.846371662E0
5.358049125E0,-6.144157729E-1,1.993599406E0,-1.317372863E0,2.467269055E0
5.368122125E0,-1.868520739E0,2.475208247E0,-6.166861005E-1,3.162013182E0
5.378195125E0,-2.859257171E0,1.942516376E0,-3.656031521E-1,3.475972829E0
5.388268125E0,-3.538548971E0,8.820232451E-1,-3.846487029E-1,3.667049011E0
5.398341125E0,-3.749023300E0,-3.123489046E-1,-8.053709257E-1,3.847253548E0
5.408414125E0,-3.331984676E0,-2.119437334E0,-1.196966998E0,4.126362380E0
5.418487125E0,-2.594233291E0,-4.517932450E0,-9.033445323E-1,5.287512774E0
5.428560125E0,-2.046826318E0,-7.184470949E0,6.409415205E-1,7.497794797E0
5.438633125E0,-1.817740887E0,-1.091032436E1,1.978531716E0,1.123627818E1
5.448706125E0,-2.138694554E0,-1.393953057E1,1.431522207E0,1.417511138E1
5.458779125E0,-3.176808051E0,-1.385186209E1,-7.946833849E-1,1.423368239E1
5.468852125E0,-4.259119483E0,-1.002474484E1,-3.039865676E0,1.130824439E1
5.478925125E0,-4.937333933E0,-5.195420676E0,-4.718009552E0,8.580750346E0
5.488998125E0,-4.901864138E0,-7.972532362E-1,-4.207213165E0,6.508803835E0
5.499070125E0,-4.739759440E0,2.779238902E0,-7.301651343E-1,5.542799793E0
5.509143125E0,-5.045085254E0,5.890990248E0,4.385394198E0,8.910013108E0
5.519216125E0,-4.858406754E0,8.075696542E0,6.402897606E0,1.139377411E1
5.529289125E0,-4.276684226E0,9.506624233E0,5.145022355E0,1.162485214E1
5.539362125E0,-3.999623268E0,1.040532140E1,5.082148415E0,1.225136450E1
5.549435125E0,-3.662098884E0,9.835641210E0,5.770324767E0,1.197695513E1
5.559508125E0,-2.845498965E0,6.975538824E0,5.867254061E0,9.548804975E0
5.569581125E0,-2.057375718E0,4.096419538E0,5.847656533E0,7.430244599E0
5.579654125E0,-1.106140589E0,8.497203022E-1,6.551664805E0,6.698498587E0
5.589727125E0,-1.773279244E-1,-2.563086051E0,6.702227100E0,7.177792376E0
5.599800125E0,4.924169804E-1,-4.834514154E0,6.081043468E0,7.784220657E0
5.609873125E0,9.314865965E-1,-6.750741448E0,4.900117575E0,8.393529033E0
5.619946125E0,1.265878773E0,-7.635319927E0,3.497260612E0,8.493020148E0
5.630019125E0,1.137761162E0,-6.392094875E0,1.805174636E0,6.738845066E0
5.640092125E0,3.298198003E-1,-3.517592551E0,4.245593119E-1,3.558439133E0
5.650165125E0,-4.416846371E-1,-8.646599382E-1,1.534006063E-1,9.829821328E-1
5.660238125E0,-9.626117639E-1,9.376483923E-1,7.634362299E-2,1.345969637E0
5.670311125E0,-1.347259736E0,1.595231527E0,-3.465059996E-1,2.116586598E0
5.680384125E0,-1.713368234E0,1.279578361E0,-1.965783032E0,2.904695236E0
5.690457125E0,-2.338364982E0,6.718696368E-1,-4.400281209E0,5.028104445E0
5.700530125E0,-2.959023827E0,4.026860476E-2,-5.519732984E0,6.262978188E0
5.710603125E0,-3.331271901E0,-2.887811172E-1,-4.295207328E0,5.443305338E0
5.720676125E0,-3.197423287E0,-9.358000875E-2,-9.928490317E-1,3.349331589E0
5.730749125E0,-2.359254744E0,-1.688576478E-1,1.498565358E-1,2.370032244E0
5.740821125E0,-1.258070109E0,-8.451010019E-1,4.321893436E-1,1.575983417E0
5.750894125E0,-3.971180364E-1,-1.043107020E0,1.637474737E0,1.981690819E0
5.760967125E0,4.299815811E-1,-1.402922451E0,2.479251596E0,2.880931107E0
5.771040125E0,8.402007428E-1,-1.183487558E0,2.912242008E0,3.253879777E0
5.781113125E0,1.044063039E0,-4.792313629E-1,2.537414435E0,2.785354977E0
5.791186125E0,1.412456921E0,-1.722157037E-1,2.119495806E0,2.552832794E0
5.801259125E0,1.717793845E0,6.377908945E-2,1.431034695E0,2.236681418E0
5.811332125E0,1.978331741E0,4.695670849E-1,-6.696699142E-2,2.034397774E0
5.821405125E0,2.369245589E0,8.559738994E-1,-1.604791725E0,2.986866662E0
5.831478125E0,2.644023210E0,9.905101454E-1,-1.695089107E0,3.293219726E0
5.841551125E0,2.745418607E0,9.774445421E-1,-8.678976146E-1,3.040718242E0
5.851624125E0,2.738417736E0,1.158386046E0,-3.178996664E-1,2.990292649E0
5.861697125E0,2.628581298E0,1.495206133E0,-3.413066554E-1,3.043282973E0
5.871770125E0,2.372347391E0,1.772676980E0,-6.092962432E-1,3.023517444E0
5.881843125E0,1.910846540E0,1.756509429E0,-6.739382355E-1,2.681576518E0
5.891916125E0,1.309879217E0,1.485199792E0,-8.136114067E-1,2.140926320E0
5.901989125E0,8.592714366E-1,1.453999050E0,-8.699481601E-1,1.899808001E0
5.912062125E0,5.308426890E-1,1.452192845E0,-8.823101972E-1,1.780204849E0
5.922135125E0,2.271826006E-1,1.414123963E0,-1.045089372E0,1.773011650E0
5.932208125E0,6.678792045E-2,1.309742392E0,-8.762714121E-1,1.577256272E0
5.942281125E0,4.876446292E-2,1.114557656E0,-5.019844870E-1,1.223358151E0
5.952354125E0,1.351275457E-1,8.331107014E-1,-2.742525405E-1,8.874386460E-1
5.962427125E0,1.984875360E-1,6.283260065E-1,-3.235982166E-1,7.341026347E-1
5.972500125E0,2.950310598E-1,4.182004648E-1,-3.512638789E-1,6.207425132E-1
5.982573125E0,4.612188689E-1,1.981060052E-1,-3.542501982E-1,6.143793920E-1
5.992646125E0,6.087353490E-1,6.872641861E-2,-6.162998919E-1,8.689692760E-1
6.002718125E0,8.493253959E-1,-1.001961333E-1,-8.921993007E-1,1.235885304E0
6.012791125E0,1.241618237E0,-4.790600395E-1,-9.340472384E-1,1.625902399E0
6.022864125E0,1.566750617E0,-9.503052753E-1,-1.182470727E0,2.180831179E0
6.032937125E0,1.725540529E0,-1.321256145E0,-1.474519707E0,2.626293259E0
6.043010125E0,1.689308257E0,-1.459559752E0,-1.787992739E0,2.860243886E0
6.053083125E0,1.465687341E0,-1.291613685E0,-2.015977431E0,2.807253159E0
6.063156125E0,1.168297222E0,-9.703618097E-1,-2.003502543E0,2.514068989E0
6.073229125E0,8.323730021E-1,-6.454507470E-1,-1.807734693E0,2.092213230E0
6.083302125E0,6.281377262E-1,-2.834905565E-1,-1.657819539E0,1.795352200E0
6.093375125E0,5.773238873E-1,5.731440783E-3,-1.478447574E0,1.587180818E0
6.103448125E0,5.848133665E-1,1.983398938E-1,-1.375266876E0,1.507549126E0
6.113521125E0,6.734654881E-1,1.793779582E-1,-1.380794833E0,1.546714772E0
6.123594125E0,8.018430081E-1,1.575508869E-1,-1.020029814E0,1.306994764E0
6.133667125E0,1.076441996E0,-3.897753954E-1,-6.253348634E-1,1.304490675E0
6.143740125E0,1.572970885E0,-1.495136551E0,-7.333057469E-1,2.290722163E0
6.153812625E0,2.173487534E0,-2.398466465E0,-8.842120041E-1,3.355371859E0
6.163885625E0,2.761064879E0,-2.659758067E0,-8.341230007E-1,3.923461918E0
6.173958625E0,3.218301063E0,-2.298390200E0,-9.091059400E-1,4.057897590E0
6.184031625E0,3.561040286E0,-1.990707373E0,-1.053922030E0,4.213629719E0
6.194104625E0,3.893536942E0,-2.321288481E0,-1.155477641E0,4.677941717E0
6.204177625E0,4.269654703E0,-3.126000425E0,-9.086334850E-1,5.369119551E0
6.214250625E0,4.490639986E0,-3.725070473E0,-6.324816227E-2,5.834894844E0
6.224323625E0,4.387017969E0,-3.919483377E0,6.098716092E-1,5.914407830E0
6.234395625E0,3.861214703E0,-3.716782629E0,4.859406044E-1,5.381411559E0
6.244468625E0,2.723596798E0,-2.816660498E0,-5.362276822E-1,3.954629693E0
6.254541625E0,1.210862906E0,-1.415631959E0,-2.498317612E0,3.116375092E0
6.264614625E0,-1.710883605E-1,-9.024756360E-1,-3.682715582E0,3.795540483E0
6.274687625E0,-9.642096618E-1,-5.490851247E-1,-2.644662895E0,2.868002192E0
6.284760625E0,-1.166551682E0,-7.951792288E-1,-1.694565196E0,2.205607408E0
6.294833625E0,-1.091351227E0,-1.815020177E0,-1.487793617E0,2.588218614E0
6.304906625E0,-1.234072990E0,-2.104820464E0,-1.200450915E-1,2.442870474E0
6.314979625E0,-1.377052177E0,-2.531215802E0,1.744219751E0,3.368327281E0
6.325052625E0,-1.463813163E0,-3.096324636E0,3.115473683E0,4.629919167E0
6.335125625E0,-1.638385733E0,-3.249286628E0,3.406610059E0,4.984692919E0
6.345198625E0,-1.690418935E0,-2.528810842E0,4.297917513E0,5.265405530E0
6.355271625E0,-1.645805119E0,-1.431707125E0,5.402360655E0,5.826144559E0
6.365344625E0,-1.665620309E0,-7.850565290E-1,4.430346422E0,4.797767626E0
6.375417625E0,-1.137461346E0,-1.180181542E0,2.347572885E0,2.863170486E0
6.385490625E0,-5.547319271E-1,-1.350164779E0,6.539476284E-1,1.599474896E0
6.395563625E0,-4.114451766E-1,-8.572123396E-1,3.842028527E-1,1.025530088E0
6.405636625E0,-1.690400809E-1,-6.131255847E-1,4.723100138E-1,7.921958601E-1
6.415709625E0,-9.956536487E-2,-4.081198651E-1,9.767269425E-1,1.063235913E0
6.425782625E0,-3.077772591E-1,-4.022410744E-1,1.049688646E0,1.165491731E0
6.435855625E0,-8.340830934E-1,-1.971318591E-1,1.065990390E0,1.367805209E0
6.445928625E0,-1.386625823E0,-2.033819479E-1,1.843942553E0,2.316078480E0
6.456000625E0,-1.911251606E0,-6.486912739E-1,2.850486933E0,3.492700792E0
6.466073625E0,-2.297789106E0,-9.588732004E-1,3.070389311E0,3.953044790E0
6.476146625E0,-2.508071645E0,-1.042430497E0,2.951959513E0,4.011377530E0
6.486219625E0,-2.605275173E0,-1.006785870E0,3.081841668E0,4.159185567E0
6.496292625E0,-2.533884179E0,-9.208627903E-1,3.812622879E0,4.669545003E0
6.506365625E0,-2.249975254E0,-6.314969516E-1,4.021813159E0,4.651468384E0
6.516438625E0,-2.075706300E0,4.248119116E-1,3.020089223E0,3.689168026E0
6.526511625E0,-2.067489501E0,1.407447027E0,4.218231365E0,4.903967355E0
6.536584625E0,-1.961683841E0,1.662225416E0,3.978054059E0,4.736677202E0
6.546657625E0,-2.026713650E0,1.375277985E0,3.722862272E0,4.456305785E0
6.556730625E0,-2.413111986E0,1.859706938E0,3.298370788E0,4.490085657E0
6.566803625E0,-2.574677863E0,2.463757644E0,2.365077109E0,4.276991649E0
6.576876625E0,-2.784503443E0,2.445821310E0,1.788338163E0,4.115052210E0
6.586949625E0,-3.066882736E0,2.573056723E0,1.332617577E0,4.219272476E0
6.597022625E0,-3.277633637E0,2.466812814E0,8.625064087E-1,4.191892774E0
6.607095625E0,-3.559187011E0,2.506645802E0,6.909739521E-1,4.407780661E0
6.617168625E0,-3.885879136E0,2.676953559E0,6.045661381E-1,4.757272037E0
6.627241625E0,-4.115334111E0,2.941359973E0,5.633926767E-1,5.089693964E0
6.637314625E0,-3.996117277E0,3.372581602E0,6.730113056E-1,5.272210559E0
6.647387625E0,-3.512271877E0,3.785347665E0,4.964639845E-1,5.187618641E0
6.657459625E0,-2.680222737E0,3.775506216E0,4.433323824E-1,4.651299250E0
6.667532625E0,-1.841971456E0,3.473502206E0,4.047363737E-1,3.952453409E0
6.677605625E0,-1.322072416E0,3.423029040E0,2.709336609E-2,3.669569094E0
6.687678625E0,-9.664813051E-1,3.358072906E0,1.384328306E-3,3.494387167E0
6.697751625E0,-6.912730372E-1,3.378800116E0,-5.804443270E-2,3.449277865E0
6.707824625E0,-3.717452136E-1,2.697829873E0,4.963920638E-1,2.768191758E0
6.717897625E0,3.941818571E-1,1.960702386E0,1.161114064E0,2.312556821E0
6.727970625E0,1.010651026E0,1.108387674E0,8.613416433E-1,1.729695973E0
6.738043625E0,1.613511824E0,-4.174391574E-1,4.786130199E-1,1.733997197E0
6.748116625E0,2.457030423E0,-2.112524171E0,-2.467443144E-1,3.249713776E0
6.758189625E0,3.335791506E0,-3.656218924E0,-1.867726979E0,5.289975979E0
6.768262625E0,4.160904386E0,-4.605789204E0,-3.399813255E0,7.077086242E0
6.778335625E0,4.752866558E0,-4.834308332E0,-4.672666149E0,8.233716446E0
6.788408625E0,5.170210406E0,-4.278298935E0,-5.874404036E0,8.918718529E0
6.798481625E0,5.521039252E0,-3.205904966E0,-6.245225097E0,8.930987492E0
6.808554625E0,5.949833118E0,-1.685897868E0,-4.881353860E0,7.878475821E0
6.818627625E0,6.068263793E0,-7.776855290E-2,-3.664922504E0,7.089536683E0
6.828700625E0,5.183908094E0,1.121932749E0,-3.073999382E0,6.130343255E0
6.838773625E0,3.974442234E0,1.464593620E0,-2.000040114E0,4.684163319E0
6.848846625E0,2.797296858E0,1.501118837E0,-6.126512294E-1,3.233197953E0
6.858918625E0,1.171394054E0,1.718346407E0,-2.229907317E-1,2.091555228E0
6.868991625E0,-4.591648883E-1,1.503063036E0,2.253398506E-1,1.587705556E0
6.879064625E0,-1.651151082E0,6.916209465E-1,6.632637048E-1,1.909072594E0
6.889137625E0,-2.648447798E0,-5.544131076E-1,1.270883113E0,2.989447025E0
6.899210625E0,-3.509771315E0,-2.847313941E0,1.916818009E0,4.909163131E0
6.909283625E0,-4.455630660E0,-5.652957700E0,1.797912394E0,7.418966526E0
6.919356625E0,-5.253993990E0,-7.998702745E0,1.516135218E0,9.689291225E0
6.929429625E0,-5.674300037E0,-9.553221864E0,1.657673943E0,1.123430513E1
6.939502625E0,-5.200663875E0,-8.119600945E0,5.996924838E-1,9.660975899E0
6.949575625E0,-4.277450796E0,-4.236217693E0,-2.133284125E0,6.386941899E0
6.959648625E0,-3.896412310E0,-9.526412380E-1,-3.596643398E0,5.387522432E0
6.969721625E0,-4.600590445E0,5.791058993E-1,-2.228919723E0,5.144791465E0
6.979794625E0,-5.459242369E0,2.776738048E0,1.607865021E0,6.332363805E0
6.989867625E0,-5.732329559E0,5.211504613E0,4.199232885E0,8.812090519E0
6.999940625E0,-5.290770637E0,6.521161051E0,5.235650690E0,9.895950360E0
7.010013625E0,-4.593993616E0,6.566237236E0,5.801054224E0,9.893052052E0
7.020086625E0,-3.771912518E0,5.833729050E0,7.718358575E0,1.038425624E1
7.030159625E0,-3.288353630E0,4.587727155E0,7.464473641E0,9.358358659E0
7.040232625E0,-2.748769062E0,3.167053142E0,6.031138651E0,7.345787254E0
7.050304625E0,-1.864298757E0,1.655961294E0,6.205471047E0,6.687726712E0
7.060377625E0,-4.158068340E-1,1.940228945E-1,3.837808591E0,3.865141005E0
7.070450625E0,1.870267594E0,-1.713020763E0,5.861845386E-1,2.603066139E0
7.080523625E0,4.461089620E0,-2.073982249E0,-1.722248108E0,5.212375803E0
7.090596625E0,7.326666462E0,3.572847569E-1,-8.608412679E-1,7.385711986E0
7.100669625E0,8.662344180E0,2.205134711E0,2.362393237E0,9.245524733E0
7.110742625E0,1.063655890E1,6.277145632E0,4.422142779E0,1.311847130E1
7.120815625E0,1.295841923E1,1.443887460E1,1.675455326E0,1.947328630E1
7.130888625E0,7.138493122E0,1.987866211E-1,-6.439949073E0,9.616160577E0
7.140961625E0,8.411823441E-1,-1.660752853E1,-8.445608361E0,1.865062713E1
7.151034625E0,-5.087850181E-1,-1.498744517E1,-4.131139719E0,1.555469994E1
7.161108417E0,-1.119968085E0,-7.918313470E0,-1.507381790E0,8.137949163E0
7.171181417E0,-2.820440138E0,-1.969586061E0,-1.605834868E0,3.796426931E0
7.181254417E0,-5.382546195E0,2.819755429E0,-1.433712720E0,6.243264882E0
7.191327417E0,-7.255989997E0,1.028140603E1,3.697671590E0,1.311600077E1
7.201400417E0,-5.426618414E0,1.393164618E1,7.668709867E0,1.680321587E1
7.211473417E0,-3.029116155E0,-2.266065037E0,7.074508796E0,8.022422959E0
7.221546417E0,-2.838522652E0,-1.171863527E1,2.969269903E0,1.241773680E1
7.231618417E0,-8.006194051E-1,-7.427421589E0,1.207099199E-2,7.470457055E0
7.241691417E0,-4.630857387E-1,-3.319026369E0,2.379954180E-1,3.359616981E0
7.251764417E0,-2.269956067E0,-2.221762438E0,-6.940001786E-1,3.251240552E0
7.261837417E0,-4.372349644E0,-1.258374018E0,-1.933772449E0,4.943725566E0
7.271910417E0,-5.602205037E0,-1.470714485E0,-2.570696787E0,6.336890748E0
7.281983417E0,-5.957626871E0,-3.026623487E0,-2.249622667E0,7.050855963E0
7.292056417E0,-4.504076303E0,-3.208753145E0,-1.166868090E0,5.651936060E0
7.302129417E0,-1.560183609E0,-1.858591290E0,8.449577451E-1,2.569530709E0
7.312202417E0,1.830624203E0,-1.042508265E0,1.646657789E0,2.673853087E0
7.322275417E0,4.293405801E0,-3.715888005E-1,1.570703627E0,4.586776809E0
7.332348417E0,4.580044206E0,-1.626391924E0,1.441200664E0,5.069419589E0
7.342421417E0,4.889700760E0,3.837317133E-1,7.293185306E-1,4.958662024E0
7.352494417E0,4.282515362E0,3.845156495E0,-4.271912167E-1,5.771278769E0
7.362567417E0,2.183545475E0,5.685652991E0,-1.111811146E0,6.191174751E0
7.372640417E0,1.405921781E0,4.954913587E0,-8.402192346E-1,5.218596849E0
7.382713417E0,9.208356008E-1,2.929944454E0,8.692388197E-1,3.191878574E0
7.392786417E0,5.106560540E-1,1.989612774E0,1.127556601E0,2.343226939E0
7.402859417E0,3.388937288E-1,1.248976958E0,-6.817087466E-1,1.462709546E0
7.412932417E0,1.067989554E-1,7.595959979E-1,-1.981295841E0,2.124600034E0
7.423004417E0,5.730128083E-1,9.255341309E-1,-2.120933052E0,2.383970242E0
7.433077417E0,1.782554536E0,3.591827631E-1,-2.651081969E0,3.214770370E0
7.443150417E0,4.877374537E-2,-3.083230966E-1,4.517914031E-1,5.491424971E-1
7.453223417E0,6.653361773E-1,1.019976604E0,1.594475774E0,2.006334343E0
7.463296417E0,2.142750767E0,3.198638046E0,-6.283774620E-1,3.900964552E0
7.473369417E0,2.754801634E0,3.442432441E0,-2.737561119E-1,4.417489735E0
7.483442417E0,2.584878039E0,1.723446933E0,6.793178201E-2,3.107487495E0
7.493515417E0,2.067938274E0,-3.409932446E-1,-6.239555052E-1,2.186770581E0
7.503588417E0,1.754379289E0,-1.468857409E0,-1.251189837E0,2.607846772E0
7.513661417E0,1.552827227E0,-1.644516538E0,-1.268365155E0,2.593155840E0
7.523734417E0,7.987793595E-2,-2.387407626E0,-1.510670264E0,2.826343982E0
7.533807417E0,-3.329599012E-1,-2.095855513E0,-1.083289670E0,2.382643309E0
7.543880417E0,3.010065488E-1,-2.129789245E0,2.994671962E-1,2.171701584E0
7.553953417E0,1.133712769E0,-2.184610984E0,1.123358008E0,2.705506054E0
7.564026417E0,1.582276875E0,-1.687801137E0,7.346915370E-1,2.427353382E0
7.574099417E0,1.409099596E0,-8.456921554E-1,-2.496878028E-1,1.662257770E0
7.584172417E0,1.226219594E0,-1.333240598E0,6.741960977E-1,1.932792116E0
7.594245417E0,1.914468306E0,-1.863872495E0,9.323500840E-1,2.829926898E0
7.604317417E0,2.090607052E0,-2.765206754E0,6.167349248E-1,3.520989663E0
7.614390417E0,2.490001410E0,-3.790140628E0,5.536203714E-1,4.568563069E0
7.624463417E0,2.716145107E0,-4.420415511E0,4.998445523E-1,5.212231970E0
7.634536417E0,2.555466544E0,-3.873509644E0,8.421978593E-1,4.716331567E0
7.644609417E0,2.151945076E0,-3.233831268E0,1.148386137E0,4.050595388E0
7.654682417E0,1.755075400E0,-3.952556983E0,1.711452393E0,4.651028451E0
7.664755417E0,1.343876245E0,-4.971865250E0,1.979926277E0,5.517749132E0
7.674828417E0,1.774872902E0,-4.249111973E0,1.031002625E0,4.718908008E0
7.684901417E0,2.252870795E0,-4.364552382E0,7.031937557E-1,4.961776474E0
7.694974417E0,2.041249097E0,-4.892712661E0,1.025754676E0,5.399769228E0
7.705047417E0,1.543528692E0,-4.300197927E0,2.593905994E-1,4.576184712E0
7.715120417E0,6.541547661E-1,-3.111825605E0,-5.524339713E-2,3.180318991E0
7.725193417E0,-9.309663405E-1,-2.085462087E0,-8.704643961E-1,2.444086478E0
7.735266417E0,-1.972167753E0,4.543877131E-1,1.591980475E-1,2.030088140E0
7.745339417E0,-2.166522038E0,-7.129983670E-1,1.174579909E0,2.565506261E0
7.755412417E0,-1.979854356E0,-2.015289068E0,2.075110177E0,3.505323886E0
7.765485417E0,-2.102580396E0,-2.706993045E0,2.858667480E0,4.463253905E0
7.775557417E0,-1.713988185E0,-1.642723197E0,2.244645517E0,3.267220301E0
7.785630417E0,-1.640163286E0,5.478648108E-1,-5.865260891E-1,1.826007752E0
7.795703417E0,-2.758467253E0,9.160721666E-1,-3.742090548E0,4.738308926E0
7.805776417E0,-2.476324773E0,3.143433899E-1,3.357533208E0,4.183781231E0
7.815849417E0,-2.681759385E0,8.887475431E-1,6.719256531E0,7.289040673E0
7.825922417E0,-3.274400127E0,2.570126683E0,1.760043486E0,4.519402663E0
7.835995417E0,-3.469508557E0,2.940074170E0,9.983056533E-1,4.655978945E0
7.846068417E0,-3.446823407E0,1.859250855E0,1.119465955E0,4.073157174E0
7.856141417E0,-3.104297315E0,-5.565929496E-1,-8.327451774E-1,3.261889339E0
7.866214417E0,-2.529790835E0,-2.278290980E0,-8.796397738E-1,3.516278941E0
7.876287417E0,-1.766368420E0,-2.885106250E0,-1.049118104E0,3.541827814E0
7.886360417E0,-1.424182343E0,-2.728913087E0,-3.218778781E0,4.453739869E0
7.896433417E0,-1.093156847E0,-3.646549968E0,-1.447887394E0,4.072922350E0
7.906506417E0,-2.105018685E0,-5.266042762E0,1.271850096E0,5.812048925E0
7.916579417E0,-6.254380667E0,-4.644171497E0,1.364864094E0,7.908758463E0
7.926652417E0,-4.896761858E0,3.906177453E0,1.874099129E0,6.538252559E0
7.936725417E0,-2.415976537E0,6.490416391E0,2.041478162E0,7.220116387E0
7.946797417E0,-2.589002665E0,1.547893639E0,2.891553390E0,4.178515349E0
7.956870417E0,-2.498915783E0,-1.887101144E0,1.949417260E0,3.688625553E0
7.966943417E0,-1.919128098E0,-6.201657493E0,3.267168291E-1,6.500027093E0
7.977016417E0,-2.012983510E0,-6.700951822E0,-1.034178468E0,7.072791743E0
7.987089417E0,-2.425912710E0,-6.492590386E-1,-2.672162935E-2,2.511434615E0
7.997162417E0,-5.406944287E0,-6.946591598E-1,-8.296706383E-1,5.514159160E0
8.007235417E0,-4.999382247E0,6.763181984E-1,-1.673354714E-1,5.047695545E0
8.017308417E0,-5.123255510E0,1.355504456E0,2.727283175E-1,5.306554446E0
8.027381417E0,-5.517874154E0,-3.656147003E-2,1.299472050E-1,5.519525179E0
8.037454417E0,-5.022802100E0,-1.096104428E0,2.589942312E-1,5.147529880E0
8.047527417E0,-3.394052578E0,-2.088250625E0,-1.948933987E-1,3.989782828E0
8.057600417E0,-1.114103327E0,-3.266319568E0,-1.950211604E-1,3.456602811E0
8.067673417E0,4.937880063E-1,-4.343089008E0,-9.658933675E-1,4.476516360E0
8.077746417E0,8.917296231E-1,-3.455441911E0,-2.092090491E0,4.136677790E0
8.087819417E0,6.057966846E-1,-3.428666925E0,-3.263727497E0,4.772280763E0
8.097892417E0,-8.300204480E-1,-3.343170108E0,-3.698148723E0,5.053911781E0
8.107965417E0,-2.083638926E0,-3.883066918E0,-3.330626661E0,5.523842305E0
8.118037417E0,-2.455474479E0,-4.266868213E0,-3.480970269E0,6.029317812E0
8.128110417E0,-2.975873748E0,-1.688674711E0,-3.331126598E0,4.775337816E0
8.138183417E0,-3.769615731E0,1.205294164E0,-4.411739413E0,5.926734466E0
8.148256417E0,-3.576754094E0,8.335989439E-1,-3.773741527E0,5.265850563E0
8.158329125E0,-2.791749605E0,5.463714319E-1,-1.156366564E0,3.070760692E0
8.168402125E0,-1.471276987E0,3.010676376E0,1.328251169E0,3.604591430E0
8.178475125E0,-2.636760968E-1,5.446821129E0,2.314549857E0,5.924063346E0
8.188548125E0,1.521770618E0,5.211190617E0,8.977089858E-1,5.502560757E0
8.198621125E0,5.147352471E0,3.713367856E0,-3.101889724E0,7.064421997E0
8.208694125E0,7.340088746E0,2.076428139E0,-4.249968883E0,8.732164229E0
8.218767125E0,7.486412394E0,1.853363294E0,-2.805960093E0,8.206993242E0
8.228840125E0,7.471191507E0,3.393891780E0,-2.865190049E0,8.691749994E0
8.238913125E0,6.769961831E0,3.327497231E0,-4.087036511E0,8.579538942E0
8.248986125E0,4.901990438E0,2.976788253E0,-2.981564843E0,6.463784299E0
8.259059125E0,3.187875661E0,3.644733531E0,-1.189141231E0,4.986049599E0
8.269132125E0,1.707781073E0,2.973714664E0,2.556969863E-1,3.438731749E0
8.279204125E0,2.502772021E-1,3.455695680E0,3.226584229E0,4.734481713E0
8.289277125E0,-2.553905922E-1,6.195108027E0,3.579906328E0,7.159631075E0
8.299350125E0,-8.016830868E-1,6.380595156E0,3.100311268E0,7.139090998E0
8.309423125E0,-1.053645456E0,4.966091709E0,4.327557049E0,6.670830954E0
8.319496125E0,-5.134790897E-1,4.201748942E0,3.584072469E0,5.546524173E0
8.329569125E0,-7.442341930E-1,2.463239873E0,1.347318939E0,2.904600408E0
8.339642125E0,-8.121800083E-1,9.573283660E-1,4.762329108E-1,1.342725494E0
8.349715125E0,-7.030469906E-1,5.650885154E-1,-1.148235279E-1,9.092769346E-1
8.359788125E0,-6.052178103E-1,-4.539368927E-2,-5.590569663E-1,8.251629393E-1
8.369861125E0,-7.836192834E-1,8.687567899E-1,-6.336919963E-1,1.330549919E0
8.379934125E0,-1.512743102E0,2.728466067E0,4.044443053E-1,3.145869350E0
8.390007125E0,-1.095144315E0,2.478083907E0,-4.291370970E-1,2.743063902E0
8.400080125E0,-1.093955576E0,6.856170255E-1,1.903502584E-1,1.305006793E0
8.410153125E0,-1.188405066E0,-5.782071823E-1,9.957398951E-1,1.654729007E0
8.420226125E0,-1.174799180E0,-9.693235635E-1,-1.241679633E-1,1.528122694E0
8.430299125E0,-1.359047284E0,-2.510847611E0,3.176651931E-1,2.872677570E0
8.440372125E0,-1.233081887E0,-2.649038367E0,4.173029172E-1,2.951615987E0
8.450444125E0,-1.022903720E0,-1.513417870E0,-5.127721614E-1,1.897287791E0
8.460517125E0,-6.852615148E-1,-1.056033167E0,-1.855188210E0,2.241988557E0
8.470590125E0,-4.676015434E-1,-1.733803668E0,-1.787095630E0,2.533463469E0
8.480663125E0,1.462432489E-1,-1.818955353E0,9.494065583E-2,1.827292914E0
8.490736125E0,6.184570760E-1,-1.932343390E0,4.506852561E-1,2.078354477E0
8.500809125E0,7.450419858E-1,-2.310730163E0,1.273136483E0,2.741429911E0
8.510882125E0,1.030424409E0,-1.619210374E0,1.435478579E0,2.396709296E0
8.520955125E0,1.161295328E0,-1.218379355E0,6.949953747E-1,1.821008968E0
8.531028125E0,1.558466866E0,-1.694447959E0,4.937453216E-1,2.354518486E0
8.541101125E0,2.066399580E0,-2.642682443E0,3.469772851E-1,3.372561483E0
8.551174125E0,2.541744298E0,-2.659360456E0,2.009243631E-1,3.684159703E0
8.561247125E0,2.729077393E0,-1.930031401E0,2.001355737E-1,3.348572662E0
8.571320125E0,2.703936705E0,-1.251865190E0,1.484257221E-1,2.983365608E0
8.581393125E0,2.827528718E0,-1.243105476E0,9.307808375E-1,3.225923564E0
8.591466125E0,2.853275177E0,-1.748582651E0,1.178123322E0,3.547773258E0
8.601538125E0,2.504900408E0,-1.776514216E0,1.001882395E0,3.230216269E0
8.611611125E0,2.247560792E0,-1.669338554E0,1.919588274E-1,2.806255319E0
8.621684125E0,1.775900697E0,-1.417505407E0,-2.384260654E-2,2.272380543E0
8.631757125E0,1.231871659E0,-8.512733227E-1,1.089032806E0,1.851530855E0
8.641830125E0,9.552243917E-1,-5.686057618E-1,1.572035623E0,1.925373249E0
8.651903125E0,9.660376476E-1,-9.080345839E-1,9.275069815E-1,1.618031132E0
8.661976125E0,1.327562805E0,-1.350334933E0,1.094588830E0,2.187224757E0
8.672049125E0,1.771241051E0,-1.417764439E0,1.081704490E0,2.513450908E0
8.682122125E0,1.931037999E0,-1.284261396E0,5.368480718E-1,2.380428730E0
8.692195125E0,1.883328812E0,-1.287371238E0,2.529014325E-1,2.295258428E0
8.702268125E0,2.039429444E0,-1.288679844E0,1.617947960E-1,2.417880426E0
8.712341125E0,2.159951814E0,-1.213995698E0,1.901280642E-2,2.477809291E0
8.722414125E0,2.356683431E0,-1.186543897E0,8.530029291E-1,2.772987056E0
8.732487125E0,2.596311684E0,-1.552662043E0,1.191808146E0,3.251461277E0
8.742560125E0,2.514612341E0,-1.831906351E0,7.642749399E-1,3.203634231E0
8.752633125E0,2.324622855E0,-1.657196226E0,3.614865661E-2,2.855079242E0
8.762705125E0,2.076670799E0,-1.093315891E0,-3.713022870E-1,2.376082202E0
8.772778125E0,1.911717629E0,-6.403496361E-1,-3.913775325E-1,2.053749820E0
8.782851125E0,1.901449918E0,-9.680942595E-1,-1.047271407E-1,2.136278554E0
8.792924125E0,2.127790374E0,-1.383535423E0,-4.410905600E-2,2.538426235E0
8.802997125E0,2.309261051E0,-1.229371828E0,-5.777505147E-1,2.679148624E0
8.813070125E0,2.333245306E0,-9.387283731E-1,-9.759225118E-1,2.697715583E0
8.823143125E0,2.127104934E0,-7.888005012E-1,-8.742803621E-1,2.431285212E0
8.833216125E0,1.850471700E0,-4.890856755E-1,-4.532287949E-1,1.966943479E0
8.843289125E0,1.564016313E0,-3.286316460E-1,4.011546618E-1,1.647747204E0
8.853362125E0,1.374246244E0,-7.442277610E-1,8.986807930E-1,1.802790855E0
8.863435125E0,1.616248028E0,-1.145585321E0,6.134372413E-2,1.982015759E0
8.873508125E0,1.806675324E0,-1.362593620E0,-8.026975787E-1,2.401054040E0
8.883581125E0,1.839899057E0,-1.176051069E0,-8.707363647E-1,2.350852286E0
8.893654125E0,1.756812900E0,-7.672605282E-1,-5.225019282E-1,1.986979755E0
8.903726125E0,1.586431760E0,-1.133633028E0,-2.075270391E-1,1.960856201E0
8.913799125E0,1.610576960E0,-2.032838901E0,6.757276297E-2,2.594409031E0
8.923872125E0,2.012571136E0,-2.316499611E0,-3.811039746E-2,3.068886675E0
8.933945125E0,2.014412570E0,-1.931247037E0,9.050905108E-2,2.792089721E0
8.944018125E0,1.717307503E0,-1.022276314E0,2.455690241E-1,2.013578423E0
8.954091125E0,1.508513518E0,-3.436642528E-1,2.161774099E-2,1.547315572E0
8.964164125E0,9.914369291E-1,-3.473608625E-1,3.494541657E-1,1.107124639E0
8.974237125E0,1.081591054E0,-1.097587867E0,7.829339898E-1,1.728445535E0
8.984310125E0,1.349620842E0,-1.555341237E0,5.474151599E-1,2.130780640E0
8.994383125E0,1.440030344E0,-1.878015740E0,7.608730298E-1,2.485871734E0
9.004456125E0,1.650818229E0,-1.808955445E0,8.005955046E-1,2.576523586E0
9.014529125E0,1.663071508E0,-1.522922519E0,1.361149943E-1,2.259120876E0
9.024602125E0,1.316017478E0,-1.687356749E0,-4.958672762E-2,2.140451738E0
9.034675125E0,1.230723266E0,-1.896741448E0,3.096971923E-1,2.282152543E0
9.044748125E0,1.233223097E0,-1.640325254E0,4.460624474E-1,2.100113772E0
9.054820125E0,1.060854635E0,-1.223344519E0,6.228214377E-1,1.734903718E0
9.064893125E0,9.505322935E-1,-5.539096624E-1,1.016797473E0,1.498066973E0
9.074966125E0,1.165527543E0,-4.799605107E-1,9.230192435E-1,1.562299929E0
9.085039125E0,1.233738675E0,-1.434928941E0,8.493384790E-1,2.074248788E0
9.095112125E0,1.255775808E0,-1.898740026E0,9.565910321E-1,2.469261624E0
9.105185125E0,1.173060218E0,-1.807879558E0,1.226549377E0,2.479702028E0
9.115258125E0,1.231474049E0,-1.853777862E0,1.423706380E0,2.641961496E0
9.125331125E0,1.366480265E0,-1.783461585E0,1.176199588E0,2.536030167E0
9.135404125E0,1.301213936E0,-1.332590972E0,6.893381935E-1,1.985986795E0
9.145477125E0,1.213864282E0,-1.090015723E0,2.608676791E-2,1.631649867E0
9.155550125E0,9.964545710E-1,-1.559155376E0,5.018431306E-2,1.851055284E0
9.165623250E0,9.577911732E-1,-1.852193266E0,5.648749459E-1,2.160339680E0
9.175696250E0,1.184212466E0,-2.059799827E0,6.018287641E-1,2.450985997E0
9.185769250E0,1.085400954E0,-1.966845471E0,8.346865261E-1,2.396513704E0
9.195841250E0,1.322955784E0,-2.742858696E0,-1.024223437E0,3.212867797E0
9.205914250E0,1.741785263E0,-3.036952009E0,-2.288546997E0,4.182623670E0
9.215987250E0,2.142241475E0,-2.610894055E0,-1.855829650E0,3.853578855E0
9.226060250E0,2.304123102E0,-2.586668456E0,-1.624071749E0,3.825891532E0
9.236133250E0,1.157816527E0,-1.191432170E0,4.728186046E0,5.011565924E0
9.246206250E0,-2.522702439E-1,-2.839823073E-1,5.044496439E0,5.058777575E0
9.256279250E0,6.040574303E-1,-9.508098900E-1,-6.885447264E-1,1.320234323E0
9.266352250E0,1.677483140E0,-1.047046874E0,-3.108114962E0,3.683834342E0
9.276425250E0,1.660802788E0,-7.938495719E-1,-2.601622126E0,3.186989289E0
9.286498250E0,1.309010175E0,-5.901349175E-1,-7.925117290E-1,1.640073687E0
9.296571250E0,1.222445655E0,-5.287847614E-1,2.481488156E-1,1.354830077E0
9.306644250E0,1.036186840E0,-8.371908885E-1,2.868468583E-2,1.332439328E0
9.316717250E0,7.579580466E-1,-1.399789221E0,-4.333546937E-1,1.649759544E0
9.326790250E0,6.311196600E-1,-1.782909900E0,-7.582295036E-1,2.037643668E0
9.336863250E0,6.227606267E-1,-1.830003083E0,-1.050481528E0,2.200057618E0
9.346935250E0,6.530456954E-1,-1.577585800E0,-8.857625395E-1,1.923491854E0
9.357008250E0,7.879906619E-1,-1.022890564E0,-1.785792285E-1,1.303504864E0
9.367081250E0,1.069758044E0,-5.913830057E-1,-1.351642370E-2,1.222415161E0
9.377154250E0,1.276262113E0,-4.381967729E-1,7.797495961E-2,1.351643994E0
9.387227250E0,1.444299981E0,-1.423700532E-1,2.200500208E-1,1.467887488E0
9.397300250E0,1.593351793E0,3.292105204E-1,-1.084652656E-1,1.630617741E0
9.407373250E0,1.460069044E0,5.681645894E-1,-3.411639833E-1,1.603435524E0
9.417446250E0,1.369684246E0,3.631395739E-1,-4.009529328E-1,1.472639990E0
9.427519250E0,1.591670280E0,-1.310708937E-1,-1.564697367E-1,1.604704533E0
9.437592250E0,1.416801841E0,-6.557754681E-1,4.180057526E-1,1.616198543E0
9.447665250E0,1.217650208E0,-1.100008322E0,5.441956830E-1,1.728825982E0
9.457738250E0,1.226939533E0,-1.226414599E0,2.564851910E-1,1.753641366E0
9.467811250E0,1.290138579E0,-1.003694740E0,-9.584171176E-2,1.637390093E0
9.477884250E0,1.304688351E0,-6.399312678E-1,-9.041023314E-2,1.455986859E0
9.487957250E0,1.209975445E0,-2.918187457E-1,-7.539399862E-2,1.246949483E0
9.498029250E0,1.233332732E0,-1.129164585E-1,-4.070749676E-1,1.303675490E0
9.508102250E0,1.303281073E0,-2.439516842E-2,-8.977616107E-1,1.582754747E0
9.518175250E0,1.284431842E0,-1.391540846E-1,-1.226706668E0,1.781555013E0
9.528248250E0,7.473601875E-1,-1.153910002E-1,-1.713059939E0,1.872548180E0
9.538321250E0,5.800327561E-1,1.872374931E-1,-1.802358032E0,1.902627224E0
9.548394250E0,3.837561254E-1,5.032745290E-1,-1.722810171E0,1.835382495E0
9.558467250E0,1.763517317E-1,6.336908269E-1,-1.468925822E0,1.609474159E0
9.568540250E0,1.925811173E-1,5.502051589E-1,-1.494550075E0,1.604211062E0
9.578613250E0,2.282032321E-1,5.524262238E-1,-1.434690374E0,1.554216175E0
9.588686250E0,3.970951592E-1,3.777213603E-1,-1.048605157E0,1.183186699E0
9.598759250E0,4.709676392E-1,1.223716986E-1,-8.675391072E-1,9.946906315E-1
9.608832250E0,4.374953263E-1,3.622583985E-2,-9.623780215E-1,1.057774044E0
9.618905250E0,1.968042688E-1,1.988445085E-1,-9.637889546E-1,1.003573718E0
9.628978250E0,-1.715814270E-2,3.842950925E-1,-7.898296112E-1,8.785260012E-1
9.639050250E0,-8.511981860E-2,5.694506845E-1,-5.602480441E-1,8.033662530E-1
9.649123250E0,2.621577211E-2,9.163048857E-1,-5.892806393E-1,1.089749321E0
9.659196250E0,3.339381404E-2,8.499255395E-1,-2.750758284E-1,8.939548539E-1
9.669269250E0,1.846213026E-1,3.621417466E-1,5.142041445E-3,4.065195083E-1
9.679342250E0,7.718858220E-2,3.985014877E-1,-7.519870162E-2,4.128151616E-1
9.689415250E0,-1.030603188E-1,4.907439458E-1,-8.209900081E-2,5.081252755E-1
9.699488250E0,-2.058741043E-1,6.335943478E-1,1.558060777E-1,6.841794197E-1
9.709561250E0,-3.753675637E-1,8.687775475E-1,2.048104227E-1,9.683091160E-1
9.719634250E0,-4.061258183E-1,5.959181061E-1,1.840060294E-1,7.442545186E-1
9.729707250E0,-5.475014064E-1,7.184093803E-1,2.896938676E-1,9.485738583E-1
9.739780250E0,-6.514013853E-1,1.018513923E0,2.963836670E-2,1.209368765E0
9.749853250E0,-4.653821596E-1,1.132553193E0,-2.352744162E-2,1.224667641E0
9.759926250E0,-4.736989468E-1,7.069871369E-1,4.997790635E-2,8.524783253E-1
9.769999250E0,-5.590405941E-1,6.724581590E-1,4.767936587E-1,9.960213625E-1
9.780071250E0,-6.658453967E-1,9.134011585E-1,5.030804014E-1,1.237231449E0
9.790144250E0,-6.686963528E-1,6.712656194E-1,4.546520072E-1,1.050933296E0
9.800217250E0,-7.127964918E-1,4.840959540E-1,5.454867482E-1,1.019795825E0
9.810290250E0,-7.294888307E-1,8.901349412E-1,5.459311366E-1,1.273787649E0
9.820363250E0,-6.107852367E-1,1.033591553E0,5.188398170E-1,1.307885645E0
9.830436250E0,-4.080069407E-1,5.222056206E-1,3.039435321E-1,7.290747866E-1
9.840509250E0,-1.693396776E-1,4.095847388E-1,2.822965550E-1,5.254778108E-1
9.850582250E0,-2.810629387E-1,5.590306538E-1,3.672378874E-1,7.255172730E-1
9.860655250E0,-3.397096346E-1,4.812297951E-1,4.464828622E-1,7.391425423E-1
9.870728250E0,-1.315111160E-1,-3.561667693E-1,6.911806512E-1,7.885940868E-1
9.880801250E0,-2.386973032E-1,-4.182220995E-2,6.907584822E-1,7.320333193E-1
9.890874250E0,3.291741946E-1,1.499810815E-1,1.102984262E0,1.160786052E0
9.900947250E0,-5.368913412E-3,6.109040813E-1,1.582507986E0,1.696338453E0
9.911020250E0,-1.119353689E-1,9.649829561E-1,1.512938399E0,1.797972255E0
9.921092250E0,5.286694251E-2,1.295841514E0,1.395345045E0,1.904990272E0
9.931165250E0,1.885795022E-1,1.800770659E0,1.134914153E0,2.136906018E0
9.941238250E0,8.518139709E-2,1.286674542E0,1.108095898E0,1.700195214E0
9.951311250E0,2.203739200E-1,-2.662845397E-1,8.122548527E-1,8.827400899E-1
9.961384250E0,3.498709991E-1,-4.663164715E-1,5.318299913E-1,7.891159023E-1
9.971457250E0,1.276821764E-1,-3.504056539E-1,5.490687525E-1,6.637494674E-1
9.981530250E0,-1.223951971E-1,-1.540519130E-1,5.230299318E-1,5.588138203E-1
9.991603250E0,-2.913674138E-1,7.609171763E-2,5.884743083E-1,6.610498701E-1
1.000167625E1,-6.486588950E-1,2.690463258E-1,9.100986511E-1,1.149532010E0
1.001174925E1,-9.223033250E-1,1.535801889E-1,1.210139167E0,1.529270120E0
1.002182225E1,-1.009983274E0,4.021276385E-2,1.246457393E0,1.604786376E0
1.003189525E1,-7.950969292E-1,-2.379267132E-1,1.627728013E0,1.827097899E0
1.004196825E1,-5.425420904E-1,-7.581181142E-1,1.551358114E0,1.809919057E0
1.005204125E1,-2.262099894E-1,-1.074789281E0,1.638568166E0,1.972624797E0
1.006211425E1,3.747845963E-2,-1.215526791E0,1.830527578E0,2.197667224E0
1.007218625E1,1.796980932E-1,-1.374742527E0,1.792848120E0,2.266387611E0
1.008225925E1,3.476507382E-1,-1.310086501E0,1.798820466E0,2.252319415E0
1.009233225E1,4.657676373E-1,-1.558639652E0,1.326145586E0,2.098799460E0
1.010240525E1,3.012405836E-1,-1.722783859E0,9.794799578E-1,2.004522662E0
1.011247825E1,1.237618010E-1,-1.574400237E0,6.382247579E-1,1.703344924E0
1.012255125E1,7.023554843E-2,-1.427982595E0,4.333792520E-1,1.493949430E0
1.013262425E1,1.198440387E-1,-1.356999297E0,1.574275106E-1,1.371347187E0
1.014269725E1,3.756660640E-2,-1.283177615E0,-1.253859383E-1,1.289836297E0
1.015277025E1,-7.339841701E-2,-1.182773613E0,-1.108509296E-1,1.190222112E0
1.016284312E1,-7.883588903E-2,-1.040450483E0,-8.565176904E-2,1.046942468E0
1.017291612E1,-3.265878249E-2,-9.688067427E-1,-2.120750034E-1,9.922846909E-1
1.018298913E1,-4.576893434E-2,-9.421375921E-1,-2.535814637E-1,9.767402913E-1
1.019306213E1,-1.543665663E-1,-8.122452047E-1,-1.796019065E-1,8.460662824E-1
1.020313513E1,-2.721662539E-1,-6.564742103E-1,-8.035653055E-2,7.151853121E-1
1.021320813E1,-3.179736337E-1,-4.974783303E-1,6.011580884E-2,5.934693179E-1
1.022328013E1,-2.132416691E-1,-4.130307953E-1,-1.147621322E-1,4.787867942E-1
1.023335313E1,-1.759784601E-1,-4.610716653E-1,-4.010956049E-1,6.359506138E-1
1.024342613E1,-3.068788344E-1,-4.839698003E-1,-5.025874811E-1,7.622306493E-1
1.025349912E1,-4.991888601E-1,-4.509843412E-1,-6.119783610E-1,9.094470344E-1
1.026357212E1,-7.284652756E-1,-2.730081068E-1,-6.567300260E-1,1.018081240E0
1.027364513E1,-1.156817384E0,1.850178900E-1,-4.504349953E-1,1.255129382E0
1.028371813E1,-1.703999240E0,9.895206504E-1,-3.093709177E-1,1.994611464E0
1.029379113E1,-9.171682271E-1,-2.614816368E-2,3.769126904E-1,9.919397459E-1
1.030386413E1,-4.815667409E-1,-3.882337770E-1,1.838294435E-1,6.453102012E-1
1.031393712E1,-5.445115788E-1,-3.182975695E-2,2.534814763E-1,6.014639239E-1
1.032401012E1,-6.843573160E-1,7.657718271E-2,2.638164300E-1,7.374334611E-1
1.033408313E1,-8.817419940E-1,2.112106387E-1,-4.821847916E-2,9.079669045E-1
1.034415613E1,-1.070751924E0,3.519633521E-1,-3.335117322E-1,1.175422460E0
1.035422913E1,-1.159701304E0,4.059578571E-1,-3.974030882E-1,1.291370632E0
1.036430113E1,-1.081168374E0,4.941569656E-1,-2.502619994E-1,1.214803370E0
1.037437413E1,-1.064830595E0,6.128884801E-1,-1.103293580E-1,1.233559505E0
1.038444713E1,-1.208541415E0,6.974235772E-1,-3.006287456E-2,1.395663202E0
1.039452013E1,-1.321980615E0,7.755884251E-1,-2.262638569E-2,1.532867282E0
1.040459313E1,-1.395646615E0,8.808206190E-1,-2.299031639E-1,1.666292262E0
1.041466612E1,-1.497874948E0,9.877110833E-1,-3.563959801E-1,1.829267787E0
1.042473913E1,-1.602617438E0,1.201452397E0,-3.746264291E-1,2.037698573E0
1.043481213E1,-1.657735631E0,1.356110082E0,-3.741335088E-1,2.174189012E0
1.044488513E1,-1.734854851E0,1.433822209E0,-4.060487813E-1,2.287016199E0
1.045495813E1,-1.785948698E0,1.565609240E0,-4.051816392E-1,2.409339579E0
1.046503113E1,-1.815537364E0,1.699227473E0,-3.697796720E-1,2.514018085E0
1.047510412E1,-1.790904506E0,1.796183518E0,-3.759578401E-1,2.564168184E0
1.048517713E1,-1.867009672E0,1.830859700E0,-2.925952560E-1,2.631232475E0
1.049525013E1,-1.855426776E0,1.805386012E0,-1.268418950E-1,2.591932878E0
1.050532313E1,-1.742378463E0,1.753170815E0,-9.087274790E-2,2.473408271E0
1.051539513E1,-1.708734608E0,1.637728360E0,-1.458003223E-1,2.371325763E0
1.052546813E1,-1.746731423E0,1.581969165E0,-4.141582847E-2,2.356992230E0
1.053554113E1,-1.831914538E0,1.572016034E0,1.234885168E-1,2.417104611E0
1.054561413E1,-1.857573435E0,1.477667263E0,2.569710946E-1,2.387491100E0
1.055568713E1,-1.846321638E0,1.396611405E0,1.826255018E-1,2.322235794E0
1.056576012E1,-1.828971342E0,1.501637924E0,2.657559514E-3,2.366444524E0
1.057583313E1,-1.835153018E0,1.574058905E0,4.614447176E-2,2.418176451E0
1.058590613E1,-1.871134444E0,1.587834361E0,1.788137019E-2,2.454115280E0
1.059597913E1,-1.750998136E0,1.559199669E0,1.186698264E-1,2.347590383E0
1.060605213E1,-1.609998963E0,1.539830474E0,8.060562193E-2,2.229276074E0
1.061612513E1,-1.464920479E0,1.395637552E0,2.884624439E-1,2.043772680E0
1.062619812E1,-1.219663331E0,1.195097643E0,5.022898579E-1,1.779924751E0
1.063627112E1,-9.526489855E-1,1.034364555E0,6.288861698E-1,1.540437580E0
1.064634413E1,-7.512148914E-1,9.149904317E-1,7.756536216E-1,1.415333828E0
1.065641612E1,-5.724641202E-1,8.376778154E-1,8.602686793E-1,1.330218588E0
1.066648912E1,-3.669323704E-1,7.091253175E-1,8.330954987E-1,1.153926423E0
1.067656213E1,-2.710026580E-1,6.594418184E-1,8.346865261E-1,1.097728359E0
1.068663513E1,-1.037873469E-2,5.071914326E-1,9.086590666E-1,1.040678705E0
1.069670813E1,2.276892619E-1,3.756844828E-1,5.784667987E-1,7.263642803E-1
1.070678113E1,2.212820292E-2,4.888723983E-1,6.901199663E-1,8.460209495E-1
1.071685412E1,3.326459058E-1,7.359573130E-1,1.157954521E0,1.411787923E0
1.072692712E1,4.114176216E-1,4.314601958E-1,9.570248955E-1,1.127527831E0
1.073700013E1,4.631183369E-1,6.790821773E-1,1.418218768E0,1.639199704E0
1.074707313E1,6.076539065E-1,6.954996970E-1,1.585728632E0,1.835074493E0
1.075714613E1,6.770746089E-1,5.924356507E-1,1.439684481E0,1.697675302E0
1.076721913E1,9.763009728E-1,4.539428861E-1,1.474733276E0,1.825942488E0
1.077729212E1,1.110208278E0,1.061259408E-1,1.148403094E0,1.600829411E0
1.078736512E1,1.219629125E0,2.761201411E-2,1.663367962E0,2.062777400E0
1.079743813E1,1.814311787E0,-3.534105380E-1,1.306543381E0,2.263555141E0
1.080751012E1,1.681729242E0,-6.457376991E-1,1.240751680E0,2.187385460E0
1.081758312E1,1.423753450E0,-4.487941204E-1,1.051480232E0,1.825952006E0
1.082765613E1,1.233071800E0,-5.292174554E-1,6.482270050E-1,1.490213216E0
1.083772913E1,1.089878167E0,-5.436808357E-1,2.499363095E-1,1.243338823E0
1.084780213E1,9.417429051E-1,-5.555300720E-1,3.022718132E-2,1.093803932E0
1.085787513E1,1.078037994E0,-7.073802160E-1,-6.625947833E-2,1.291101469E0
1.086794813E1,9.345522185E-1,-8.823477656E-1,-3.555264992E-1,1.333538346E0
1.087802112E1,1.212532505E0,-7.558163577E-1,-1.481099725E-3,1.428809167E0
1.088809413E1,1.459245902E0,-9.939754978E-1,-6.300164366E-1,1.874648395E0
1.089816713E1,1.441348891E0,-9.607726684E-1,-7.613133252E-1,1.892133379E0
1.090824013E1,1.634816300E0,-7.378414321E-1,-1.071768317E0,2.089430936E0
1.091831313E1,1.800464703E0,-7.840835524E-1,-1.215864176E0,2.309715536E0
1.092838613E1,1.554423078E0,-7.545089203E-1,-1.480337248E0,2.275283100E0
1.093845912E1,1.448780702E0,-6.848168340E-1,-9.633556759E-1,1.869757679E0
1.094853213E1,1.419416716E0,-8.384036011E-1,-1.065974895E0,1.963152284E0
1.095860413E1,1.064653205E0,-8.668041122E-1,-7.469882315E-1,1.562954649E0
1.096867712E1,1.015493909E0,-8.023990783E-1,-5.940414423E-1,1.424063691E0
1.097875013E1,1.135490907E0,-8.542577416E-1,-6.770561171E-1,1.574007902E0
1.098882313E1,9.323882371E-1,-8.525050387E-1,-9.519647151E-1,1.581881628E0
1.099889613E1,8.982915147E-1,-6.949828032E-1,-7.730305606E-1,1.373864982E0
1.100896913E1,1.028831627E0,-7.420236531E-1,-1.289872384E0,1.809105963E0
1.101904213E1,9.867280202E-1,-7.322795606E-1,-1.368170695E0,1.838955299E0
1.102911512E1,1.032202547E0,-6.499750301E-1,-1.582100435E0,1.997736575E0
1.103918813E1,9.399721489E-1,-6.904760617E-1,-1.715982962E0,2.074825862E0
1.104926113E1,1.274253886E0,-7.595957056E-1,-1.887277730E0,2.400526157E0
1.105933413E1,1.305347917E0,-7.989343107E-1,-1.946010087E0,2.475718982E0
1.106940713E1,1.118346725E0,-7.727607116E-1,-1.882769526E0,2.322214375E0
1.107948013E1,9.194975386E-1,-7.533540952E-1,-1.992836344E0,2.320434186E0
1.108955312E1,1.021976571E0,-7.287142208E-1,-2.094480248E0,2.441783782E0
1.109962513E1,7.764858996E-1,-7.523553908E-1,-2.205486129E0,2.456244705E0
1.110969813E1,7.437949209E-1,-6.478285173E-1,-1.991135389E0,2.222055987E0
1.111977112E1,5.375030331E-1,-5.731163040E-1,-2.033314864E0,2.179848881E0
1.112984413E1,5.441373570E-1,-5.432168591E-1,-1.680406163E0,1.847954245E0
1.113991713E1,6.060736234E-1,-4.762109837E-1,-1.941145204E0,2.088575313E0
1.114999013E1,4.873492717E-1,-2.805213404E-1,-1.850574172E0,1.934121584E0
1.116006900E1,5.132362841E-1,-4.767819643E-2,-1.884749978E0,1.953961917E0
1.117014200E1,5.982205204E-1,4.599449068E-2,-1.993559060E0,2.081888808E0
1.118021500E1,5.964943127E-1,2.184364817E-1,-1.805399169E0,1.913892923E0
1.119028800E1,6.091087303E-1,4.036876756E-1,-1.636578358E0,1.792307426E0
1.120036100E1,5.953679197E-1,4.348433948E-1,-1.329034111E0,1.519830058E0
1.121043400E1,4.761126043E-1,4.826739112E-1,-9.729568040E-1,1.185876157E0
1.122050700E1,3.871989660E-1,5.550200486E-1,-5.598878556E-1,8.783192498E-1
1.123058000E1,2.575312213E-1,5.898811483E-1,-3.406120062E-1,7.282160654E-1
1.124065200E1,1.040886247E-1,8.203590935E-1,-2.055921954E-1,8.521101073E-1
1.125072500E1,9.891467940E-2,8.713748807E-1,9.329174101E-2,8.819192964E-1
1.126079800E1,1.903089258E-1,8.020652023E-1,3.211115420E-2,8.249589094E-1
1.127087100E1,1.212750899E-1,9.281171384E-1,4.385879517E-2,9.370339716E-1
1.128094400E1,-2.083231375E-2,1.108776222E0,2.316163981E-1,1.132901077E0
1.129101700E1,-8.948651925E-2,1.102491634E0,3.785598511E-1,1.169103589E0
1.130109000E1,-5.459925324E-2,1.082688869E0,6.188476700E-1,1.248266279E0
1.131116300E1,2.017205346E-2,1.121620215E0,8.390023559E-1,1.400843950E0
1.132123600E1,1.343262579E-1,1.112075221E0,1.150000554E0,1.605383479E0
1.133130900E1,2.438170156E-1,9.824520975E-1,1.312728565E0,1.657683669E0
1.134138200E1,2.493850632E-1,8.341769412E-1,1.356914805E0,1.612222648E0
1.135145500E1,2.190683099E-1,6.642103690E-1,1.347514236E0,1.518209786E0
1.136152800E1,1.238357318E-1,5.171894404E-1,1.213711231E0,1.325109489E0
1.137160100E1,-1.445702143E-2,4.386703974E-1,1.147692073E0,1.228754580E0
1.138167400E1,-1.440438187E-1,3.518208262E-1,9.371893859E-1,1.011360698E0
1.139174600E1,-2.412788489E-1,3.484171620E-1,6.851556802E-1,8.056353442E-1
1.140181900E1,-3.068381962E-1,3.783747867E-1,6.437386823E-1,8.072896933E-1
1.141189200E1,-3.507491778E-1,3.366759530E-1,4.806691933E-1,6.836801565E-1
1.142196500E1,-4.222893497E-1,2.844568089E-1,1.442964184E-1,5.292120816E-1
1.143203800E1,-6.088534628E-1,3.752275229E-1,-2.190951705E-3,7.151944025E-1
1.144211100E1,-6.070766036E-1,3.193173239E-1,-4.927448630E-3,6.859517736E-1
1.145218400E1,-5.047908947E-1,2.022662991E-1,-9.328121603E-2,5.517489360E-1
1.146225700E1,-4.230461621E-1,-1.214668420E-1,8.241124213E-2,4.477877419E-1
1.147233000E1,-2.884150084E-1,-4.710853145E-1,3.594224989E-1,6.590061633E-1
1.148240300E1,-1.679190235E-1,-7.985171118E-1,6.139769393E-1,1.021172884E0
1.149247600E1,7.184539653E-2,-1.023501598E0,9.848898017E-1,1.422225440E0
1.150254900E1,3.328849107E-1,-9.250163600E-1,8.239972311E-1,1.282746689E0
1.151262200E1,4.046172367E-1,-9.400967677E-1,5.591528606E-1,1.166254244E0
1.152269500E1,3.729134873E-1,-8.696511215E-1,3.150228363E-1,9.972948057E-1
1.153276800E1,2.444519135E-1,-7.786437415E-1,4.491246343E-3,8.161268195E-1
1.154284000E1,5.601245217E-2,-8.807720871E-1,-2.041742456E-1,9.058609092E-1
1.155291300E1,-8.892986432E-2,-1.089511985E0,-2.400118303E-1,1.119174055E0
1.156298600E1,-1.663459763E-1,-1.293042598E0,-1.213817650E-1,1.309337114E0
1.157305900E1,-2.990849344E-1,-1.440663159E0,-9.735555589E-2,1.474598331E0
1.158313200E1,-6.000761343E-1,-1.413100992E0,-2.545316362E-1,1.556191548E0
1.159320500E1,-7.637951759E-1,-1.426963863E0,-9.108675599E-2,1.621081656E0
1.160327800E1,-6.977175459E-1,-1.371548631E0,-2.353697258E-1,1.556712668E0
1.161335100E1,-5.455724830E-1,-1.632758811E0,-1.708796149E-1,1.729956795E0
1.162342400E1,-2.360792854E-1,-2.040848563E0,-2.673247594E-1,2.071776728E0
1.163349700E1,-3.247207358E-2,-2.334148701E0,-4.104002792E-1,2.370175728E0
1.164357000E1,7.060220540E-3,-2.583894537E0,-7.007566363E-1,2.677241246E0
1.165364300E1,-7.321591079E-2,-2.564695789E0,-1.424499847E0,2.934659243E0
1.166371600E1,-1.093967271E-1,-2.642081349E0,-1.625876200E0,3.104196340E0
1.167378800E1,-2.320730656E-2,-2.704395127E0,-1.983956763E0,3.354158019E0
1.168386100E1,8.567632735E-4,-2.472565305E0,-3.075005688E0,3.945787615E0
1.169393400E1,-9.047849938E-2,-2.481174746E0,-2.861608629E0,3.788564164E0
1.170400700E1,-1.585548538E-1,-2.431646490E0,-2.655089650E0,3.603823712E0
1.171408000E1,-4.174657622E-1,-2.671488166E0,-2.169853197E0,3.466899131E0
1.172415300E1,-5.848352936E-1,-2.663611382E0,-1.319444677E0,3.029487114E0
1.173422600E1,-8.728723526E-1,-2.136251880E0,-1.123909108E0,2.566836559E0
1.174429900E1,-1.409231012E0,-1.867427017E0,-3.895765901E-1,2.371705216E0
1.175437200E1,-1.600053726E0,-1.697434132E0,-4.432382423E-1,2.374429342E0
1.176444500E1,-1.592685942E0,-1.229256346E0,-6.163368756E-1,2.104184122E0
1.177451800E1,-1.700583150E0,-9.103845799E-1,-6.068532765E-1,2.022140953E0
1.178459100E1,-1.502595259E0,-1.072911740E0,-2.074627197E-1,1.857948571E0
1.179466400E1,-1.309565514E0,-1.261261081E0,5.334993714E-1,1.894825303E0
1.180473700E1,-1.215907445E0,-1.413567308E0,1.193152421E0,2.213643184E0
1.181480900E1,-1.128856145E0,-1.582670685E0,1.413171451E0,2.403376009E0
1.182488200E1,-1.377322172E0,-1.493103912E0,1.573581042E0,2.569539444E0
1.183495500E1,-1.482430259E0,-1.228642973E0,1.518893788E0,2.452386871E0
1.184502800E1,-1.763174670E0,-1.130062572E0,1.175993181E0,2.401829781E0
1.185510100E1,-2.640730058E0,-1.210096482E0,1.305524211E0,3.184679293E0
1.186517400E1,-2.775603688E0,-1.820742116E0,1.230876902E0,3.540358123E0
1.187524700E1,-2.997612526E0,-1.490691644E0,2.090613484E-1,3.354332882E0
1.188532000E1,-2.972392316E0,-6.616505311E-1,-1.908648133E-2,3.045203080E0
1.189539300E1,-2.620322106E0,2.627836655E-1,-9.642058611E-4,2.633466180E0
1.190546600E1,-2.280854985E0,1.085061742E0,2.904113209E-1,2.542439219E0
1.191553900E1,-2.004888040E0,1.349777986E0,7.736386710E-1,2.537714219E0
1.192561200E1,-1.915720341E0,9.041829499E-1,1.087264023E0,2.381107785E0
1.193568500E1,-1.250445194E0,1.814755737E-1,2.087347230E0,2.439992833E0
1.194575800E1,-1.212770998E-1,3.742282337E-1,3.358285745E0,3.381248002E0
1.195583000E1,6.620977700E-1,1.423578326E0,3.839474756E0,4.148073662E0
1.196590300E1,1.599954323E0,2.161598975E0,3.803181088E0,4.657955598E0
1.197597600E1,1.878296991E0,3.567121098E0,3.686155499E0,5.462608798E0
1.198604900E1,1.222067487E0,4.414645479E0,3.085312575E0,5.522834176E0
1.199612200E1,1.721917301E-1,4.423437645E0,1.874862337E0,4.807448322E0
1.200619500E1,-2.094314772E-1,3.058163660E0,1.462749408E0,3.396448490E0
1.201626800E1,7.142718905E-1,1.462775428E0,1.441680720E0,2.174474554E0
1.202634100E1,2.071679031E0,9.959588002E-1,1.499420221E0,2.744457858E0
1.203641400E1,3.013766044E0,2.392142409E0,1.373725550E0,4.085615371E0
1.204648700E1,3.186270016E0,3.437484527E0,9.619307095E-1,4.784759887E0
1.205656000E1,3.158820262E0,3.059379589E0,5.317750275E-1,4.429529726E0
1.206663300E1,2.843209780E0,3.068471425E0,-2.746612608E-1,4.192230617E0
1.207670600E1,1.798010627E0,3.380635557E0,-9.821813715E-1,3.953001294E0
1.208677900E1,7.493715566E-1,3.320181195E0,-1.032491400E0,3.556852455E0
1.209685100E1,6.129864210E-1,2.435253199E0,-9.600712949E-1,2.688484217E0
1.210692400E1,1.252323904E0,1.539189035E0,-7.597035867E-1,2.124751182E0
1.211699700E1,1.956828021E0,2.085006882E0,-7.170539957E-1,2.947981688E0
1.212707000E1,3.538374140E0,3.144853018E0,-7.256447250E-1,4.789232958E0
1.213714300E1,4.893521331E0,2.969964844E0,-7.675996667E-1,5.775504432E0
1.214721600E1,5.033114834E0,2.557319527E0,-9.513472492E-1,5.725136652E0
1.215728900E1,4.084518700E0,2.862781288E0,-6.302210891E-1,5.027523081E0
1.216735550E1,3.031160342E0,2.687578534E0,2.302516580E-2,4.051116087E0
1.217742850E1,1.836585293E0,1.954569388E0,8.367964938E-1,2.809557866E0
1.218750150E1,1.378333156E0,1.498826728E0,1.356766870E0,2.446855163E0
1.219757450E1,1.289515704E0,1.822159335E0,9.702647460E-1,2.434035553E0
1.220764750E1,4.268970287E-1,1.698407986E0,-7.885420543E-1,1.920580467E0
1.221772050E1,4.031930012E-1,1.983371164E-1,-2.205265981E0,2.250577760E0
1.222779350E1,1.143480324E0,-1.539473794E0,-2.085428466E0,2.833114664E0
1.223786550E1,8.380410737E-1,-1.809912050E0,-1.052690606E0,2.255272042E0
1.224793850E1,-5.333122605E-1,-5.678450391E-1,7.238326728E-2,7.823741388E-1
1.225801150E1,-1.267162383E0,-1.850882028E-1,8.417504011E-1,1.532482263E0
1.226808450E1,-6.510693365E-1,-1.119476626E0,1.907140867E0,2.305277746E0
1.227815750E1,3.255215120E-1,-2.138071826E0,3.233267012E0,3.889901150E0
1.228823050E1,8.219360876E-1,-1.181693924E0,2.170348456E0,2.604302571E0
1.229830350E1,1.436633404E0,-1.453198858E0,1.311880134E0,2.428318749E0
1.230837650E1,1.646943133E0,-2.364142432E0,6.851697866E-1,2.961595644E0
1.231844950E1,2.359234571E-1,-1.836400521E0,-6.301653944E-2,1.852565204E0
1.232852250E1,-1.492128158E0,-8.601758547E-1,-7.334191829E-1,1.871964914E0
1.233859550E1,-1.700705942E0,-2.693601751E-1,-1.025133483E-1,1.724953504E0
1.234866850E1,-1.628111590E0,-2.907150838E-1,7.751700568E-1,1.826513407E0
1.235874150E1,-1.330960768E0,-7.554314648E-1,1.074811792E0,1.870121294E0
1.236881350E1,7.105109614E-1,-2.138588719E0,7.541633499E-1,2.376373265E0
1.237888650E1,2.605391241E0,-3.150079259E0,-3.624069178E-1,4.103949516E0
1.238895950E1,2.281930872E0,-1.651342724E0,-1.394281436E0,3.142954346E0
1.239903250E1,1.107684839E0,-8.129046245E-1,-8.284873080E-1,1.604422279E0
1.240910550E1,-2.733263415E-1,-8.339269727E-2,3.833351990E-1,4.781291726E-1
1.241917850E1,-1.148041736E0,4.534821256E-1,2.457807664E-1,1.258592091E0
1.242925150E1,-1.375625310E0,3.617138766E-1,-4.299948104E-1,1.485960113E0
1.243932450E1,-1.831429803E0,3.921230525E-1,-1.039358954E0,2.141999685E0
1.244939750E1,-2.054299936E0,2.392065226E-1,-1.608087215E0,2.619792450E0
1.245947050E1,-1.728096054E0,-4.514579657E-1,-1.315003863E0,2.217964253E0
1.246954350E1,-1.082219630E0,-5.290145570E-1,5.111496321E-1,1.308560153E0
1.247961650E1,-1.030312142E0,2.213159430E-1,1.136467173E0,1.549864992E0
1.248968950E1,-1.211213300E0,2.748955880E-1,3.487280877E-1,1.290045163E0
1.249976250E1,-1.596484001E0,-2.611945385E-1,6.070725471E-3,1.617720806E0
1.250983450E1,-2.077450233E0,1.200009450E-1,4.563284039E-1,2.130360370E0
1.251990750E1,-2.157236660E0,1.428096761E0,3.266628885E-1,2.607650093E0
1.252998050E1,-7.655233204E-1,2.918587992E-1,5.903348923E-3,8.192938193E-1
1.254005350E1,-8.674642628E-1,-1.381591809E0,2.681778681E-1,1.653242131E0
1.255012650E1,-2.456121181E0,-4.046382282E0,-1.120662734E-2,4.733483539E0
1.256019950E1,-4.056074334E0,-4.882152882E0,-4.246481895E-1,6.361405651E0
1.257027250E1,-4.408781306E0,-1.450461630E0,4.936035267E-1,4.667422842E0
1.258034550E1,-2.901694216E0,5.678538099E-1,2.090006836E-1,2.964113452E0
1.259041850E1,-5.982812583E-1,4.678205216E-1,-1.499264100E-1,7.741281760E-1
1.260049150E1,9.238700134E-1,6.822192085E-1,1.325329900E-1,1.156081244E0
1.261056450E1,9.087473595E-1,5.297323027E-1,4.693925455E-1,1.151853913E0
1.262063750E1,1.139213026E-2,2.861390528E-1,7.021956360E-1,7.583429629E-1
1.263071050E1,-6.558880270E-1,5.206854907E-1,1.093513235E0,1.377342978E0
1.264078250E1,-1.313072382E0,1.148692824E0,1.191755228E0,2.112802595E0
1.265085550E1,-2.273324355E0,1.567917721E0,5.398115869E-1,2.813852547E0
1.266092850E1,-3.526439388E0,2.802709918E0,-1.109883392E0,4.639267053E0
1.267100150E1,-4.009972547E0,3.746245872E0,-2.716290118E0,6.123109501E0
1.268107450E1,-2.733821239E0,3.789100116E0,-2.195662076E0,5.162556557E0
1.269114750E1,-1.310848686E0,4.636597306E0,-1.164158125E0,4.956977204E0
1.270122050E1,1.522018540E-1,3.523575129E0,-1.395820131E0,3.793027937E0
1.271129350E1,1.360864599E0,3.515769973E0,-4.924263360E-1,3.801982990E0
1.272136650E1,1.930651206E0,2.311936444E0,-2.917877555E-2,3.012194483E0
1.273143950E1,2.150702396E0,1.562742350E0,-6.871913883E-1,2.745890831E0
1.274151250E1,2.085652122E0,2.143504181E0,-1.177035009E0,3.214026503E0
1.275158550E1,1.658684927E0,2.625901227E0,-1.134840039E0,3.306728724E0
1.276165750E1,1.692369567E0,2.515754009E0,-9.887988116E-1,3.189177962E0
1.277173050E1,1.522728392E0,7.904368445E-1,-1.456613925E0,2.250603538E0
1.278180350E1,1.056716414E0,9.196477389E-1,-2.090954962E0,2.516842108E0
1.279187650E1,9.561729562E-1,2.399700227E0,-2.033628421E0,3.287624136E0
1.280194950E1,9.938921750E-1,1.699870667E0,-1.942595021E0,2.766054474E0
1.281202250E1,1.052853159E0,-8.369148999E-2,-1.545046922E0,1.871543221E0
1.282209550E1,1.500496109E0,-1.373135858E0,1.423118734E-1,2.038931908E0
1.283216850E1,1.459798903E0,1.060352505E0,3.145451188E0,3.626185799E0
1.284224150E1,1.260798858E0,4.540904991E0,4.135931805E0,6.270196472E0
1.285231450E1,1.372625104E0,5.007339138E0,3.551942604E0,6.290774291E0
1.286238750E1,8.946199018E-1,5.096862933E0,3.289860165E0,6.132009168E0
1.287246050E1,6.345983148E-1,4.998891081E0,3.850868055E0,6.341988003E0
1.288253350E1,3.681412822E-1,4.368988665E0,3.178074851E0,5.415140784E0
1.289260650E1,2.033071035E-1,2.942701909E0,1.267141626E0,3.210370104E0
1.290267850E1,-1.449191469E-1,3.080307359E-1,-2.046958465E0,2.075071914E0
1.291275150E1,-6.259549606E-1,-3.836406137E0,-1.054245498E1,1.123624442E1
1.292282450E1,-1.309699708E0,-3.863333150E0,-9.642969607E0,1.047031610E1
1.293289750E1,-3.556202885E0,-4.875783802E0,6.653641416E0,8.982805282E0
1.294297050E1,-5.724509493E0,-9.718457746E0,1.135379123E1,1.600396842E1
1.295304350E1,-4.691366714E0,-9.149993779E0,1.218058051E0,1.035446634E1
1.296311650E1,-3.075429611E0,-5.406480603E0,1.543033433E-1,6.221905603E0
1.297318950E1,-2.397159612E0,-1.750168709E0,3.161473728E0,4.336401832E0
1.298326250E1,-2.151373072E0,1.297905289E0,4.248329616E0,4.935713601E0
1.299333550E1,-2.300939001E0,3.467939165E0,3.662207935E0,5.543707179E0
1.300340850E1,-2.681651797E0,4.380960254E0,2.885471701E0,5.891520690E0
1.301348150E1,-2.943065021E0,4.807568430E0,2.921398748E0,6.348930349E0
1.302355450E1,-2.825488624E0,5.083986779E0,2.242600453E0,6.233744006E0
1.303362650E1,-2.604677296E0,5.231269371E0,1.725830404E0,6.093358157E0
1.304369950E1,-2.472159508E0,5.100998669E0,2.077601529E0,6.037233486E0
1.305377250E1,-2.472286393E0,4.557054416E0,2.282072375E0,5.664521099E0
1.306384550E1,-2.222549474E0,4.106595447E0,2.339161226E0,5.222597780E0
1.307391850E1,-1.992883999E0,3.920438812E0,2.303919619E0,4.964823534E0
1.308399150E1,-1.749886288E0,2.829648918E0,2.104788597E0,3.936895993E0
1.309406450E1,-1.564888279E0,1.698594512E0,1.157936102E0,2.583585621E0
1.310413750E1,-1.204517361E0,6.301801586E-1,-7.726252024E-1,1.563630010E0
1.311421050E1,-1.132994804E0,-3.092376012E-1,8.276821464E-2,1.177351136E0
1.312428350E1,-9.527663684E-1,-8.707311022E-1,2.964227556E0,3.233045222E0
1.313435650E1,-7.139058548E-1,-2.926554823E0,5.502519366E0,6.273125543E0
1.314442950E1,2.546956506E-1,-6.710964010E0,6.551421561E0,9.382059064E0
1.315450250E1,7.348938507E-1,-9.184718054E0,6.619265635E0,1.134521010E1
1.316457462E1,1.001193447E0,-1.276120435E1,4.938772348E0,1.372013837E1
1.317464762E1,1.209747988E0,-1.952653811E1,-3.753737032E-1,1.956757742E1
1.318472063E1,6.730395184E-1,-1.758724471E1,-6.929058137E0,1.891496776E1
1.319479363E1,6.921786247E-1,-9.831517754E0,-7.150744793E0,1.217665815E1
1.320486663E1,5.646713166E-1,-3.276111315E0,-4.100726012E0,5.278987864E0
1.321493963E1,2.364793812E-1,1.021129675E0,-1.542497828E0,1.864920336E0
1.322501263E1,-3.280635890E-1,3.437787412E0,5.918310486E-2,3.453912369E0
1.323508562E1,-7.440795341E-1,3.599701492E0,8.987429197E-1,3.784077697E0
1.324515863E1,-6.261606364E-1,1.843622417E0,1.368285885E0,2.379753564E0
1.325523163E1,1.999269012E-1,1.355470542E0,1.440365682E0,1.987944781E0
1.326530463E1,1.375779969E0,1.861092728E0,1.373874654E0,2.691462099E0
1.327537763E1,1.902372024E0,1.639491441E0,1.233298380E0,2.797852105E0
1.328545063E1,1.557418607E0,9.489744490E-1,1.278919526E0,2.227496437E0
1.329552263E1,9.646721034E-1,3.800812966E-1,1.491746335E0,1.816689623E0
1.330559563E1,1.363342649E-1,-2.237057000E-1,1.193710245E0,1.222119233E0
1.331566863E1,-7.660171909E-1,-6.867075312E-1,2.836051985E-1,1.067137048E0
1.332574162E1,-1.195776943E0,-5.385332394E-1,-2.196822309E-1,1.329722088E0
1.333581463E1,-1.139317398E0,-2.300253707E-1,-4.789033341E-1,1.257101511E0
1.334588763E1,-8.977398299E-1,1.976493376E-1,-9.738292086E-1,1.339158463E0
1.335596063E1,-8.109505581E-1,4.417156273E-1,-1.281224352E0,1.579331930E0
1.336603363E1,-6.887163422E-1,6.085431218E-1,-1.131183629E0,1.457474299E0
1.337610663E1,-3.257129353E-1,8.274810022E-1,-9.523687577E-1,1.303004212E0
1.338617962E1,8.709223062E-2,9.454854155E-1,-8.915939677E-1,1.302485136E0
1.339625263E1,2.498164415E-1,7.717453426E-1,-6.494151592E-1,1.039104989E0
1.340632563E1,3.618899509E-1,6.044331139E-1,-7.126820326E-1,1.002107482E0
1.341639863E1,3.700732023E-1,3.767670947E-1,-7.148349774E-1,8.887613086E-1
1.342647063E1,3.155813916E-1,-3.708771944E-2,-7.070429778E-1,7.751624901E-1
1.343654363E1,1.635030600E-1,-3.981053388E-1,-6.618977952E-1,7.895123829E-1
1.344661663E1,2.034969188E-1,-6.727110511E-1,-2.273806751E-1,7.386833731E-1
1.345668963E1,9.146558978E-1,-3.899461341E-1,2.551292217E-1,1.026520491E0
1.346676263E1,1.571029024E0,-6.933102071E-2,-3.262864192E-2,1.572896568E0
1.347683562E1,1.764822123E0,-2.158639991E-1,-6.308859175E-1,1.886587245E0
1.348690863E1,2.080783730E0,-2.279022467E-1,-8.943637937E-1,2.276287979E0
1.349698163E1,2.084918735E0,-6.993790323E-1,-6.734191489E-1,2.299893587E0
1.350705463E1,2.084000283E0,-1.095868201E0,-8.128507570E-1,2.490925661E0
1.351712763E1,2.080693391E0,-1.260022933E0,-1.116900051E0,2.676641272E0
1.352720063E1,2.087654062E0,-9.100191289E-1,-1.587593309E0,2.776128026E0
1.353727362E1,2.097881866E0,-5.024980187E-1,-2.341988209E0,3.184104482E0
1.354734662E1,1.914938714E0,-4.050261033E-1,-3.042397521E0,3.617626169E0
1.355741863E1,1.656562972E0,-6.312800199E-1,-3.068439850E0,3.543732278E0
1.356749162E1,1.798118508E0,-1.113555443E0,-2.390282702E0,3.191659018E0
1.357756462E1,2.594802518E0,-1.650530984E0,-1.880082731E0,3.604436670E0
1.358763763E1,3.493172239E0,-2.394375753E0,-1.520087205E0,4.499550272E0
1.359771063E1,3.992330036E0,-3.174326493E0,-1.023130592E0,5.202099961E0
1.360778363E1,3.979534866E0,-3.940395944E0,-3.450868072E-1,5.610927093E0
1.361785663E1,3.714658336E0,-4.283408232E0,-1.836731035E-2,5.669798056E0
1.362792962E1,3.591486738E0,-3.943343525E0,-2.370812058E-1,5.339002027E0
1.363800262E1,3.564191351E0,-3.375328040E0,-1.668490927E-1,4.911632924E0
1.364807563E1,3.983998338E0,-3.107094623E0,3.022115868E-1,5.061384356E0
1.365814863E1,4.073352272E0,-3.438444055E0,3.639570147E-1,5.342991761E0
1.366822163E1,3.580767915E0,-3.926381337E0,5.882152766E-1,5.346434931E0
1.367829363E1,3.080800571E0,-3.524387015E0,3.640195799E-1,4.695225899E0
1.368836663E1,2.144091534E0,-2.379580543E0,-4.125801212E-1,3.229513032E0
1.369843963E1,4.045668045E-1,-1.193916652E0,-1.331136185E0,1.833312525E0
1.370851263E1,-1.142041689E0,-1.978042889E-1,-2.641270341E0,2.884388110E0
1.371858562E1,-2.135342491E0,1.159801657E0,-3.657054491E0,4.390771571E0
1.372865862E1,-1.826827752E0,1.119430141E0,-3.645156577E0,4.228189914E0
1.373873163E1,-1.468709913E0,7.876205331E-1,-2.740858948E0,3.207765996E0
1.374880463E1,-9.796069886E-1,3.119542176E-1,-6.024900111E-1,1.191612143E0
1.375887763E1,-5.003531139E-1,-5.868692476E-1,6.923395693E-1,1.036389324E0
1.376895063E1,-1.779488256E-1,-1.217900176E0,2.165946526E0,2.491238844E0
1.377902363E1,3.809834488E-1,-2.055102759E0,4.796957488E0,5.232532549E0
1.378909662E1,7.117388036E-1,-2.070990229E0,6.014301009E0,6.400577262E0
1.379916963E1,1.122253469E0,-1.442957752E0,5.550998046E0,5.844241545E0
1.380924163E1,1.480736905E0,-9.303803033E-1,4.120375288E0,4.476123524E0
1.381931462E1,1.862140257E0,-7.070078945E-1,2.463199528E0,3.167771837E0
1.382938763E1,2.324755149E0,-7.515888208E-1,1.925206571E0,3.110593609E0
1.383946063E1,2.716434836E0,-1.414589401E0,2.405364718E0,3.894337019E0
1.384953363E1,2.625603311E0,-1.923957313E0,1.753035891E0,3.697098771E0
1.385960663E1,2.222073656E0,-1.812892960E0,6.741336787E-1,2.945954588E0
1.386967963E1,1.636661681E0,-1.294579977E0,2.078217387E-1,2.097090521E0
1.387975262E1,9.450977451E-1,-6.279330736E-1,7.528269687E-1,1.361711474E0
1.388982563E1,2.216703756E-1,-2.234162629E-2,1.462702338E0,1.479572584E0
1.389989863E1,-4.972220395E-1,5.907968223E-1,1.459393398E0,1.651090468E0
1.390997163E1,-7.684375727E-1,-5.394699633E-2,3.840607069E0,3.917099595E0
1.392004463E1,-1.196165856E0,-5.824768192E-1,3.699634208E0,3.931588136E0
1.393011663E1,-1.388603497E0,-3.565439147E-1,2.864874007E0,3.203567747E0
1.394018963E1,-1.291658855E0,-6.628812969E-1,2.782862130E0,3.138808029E0
1.395026263E1,-1.033109085E0,-1.235561691E0,3.137481433E0,3.526714734E0
1.396033563E1,-6.623501504E-1,-1.487569669E0,3.482544048E0,3.844435496E0
1.397040862E1,-5.725595760E-1,-1.107853823E0,3.000325342E0,3.249171698E0
1.398048163E1,-5.562072892E-1,-4.774105400E-1,2.128863630E0,2.251521203E0
1.399055463E1,-6.824310970E-1,2.639392215E-1,2.362159933E0,2.472888122E0
1.400062763E1,-1.065977527E0,1.148777901E0,2.647024001E0,3.076155850E0
1.401070063E1,-1.552570534E0,1.867648042E0,2.637292480E0,3.585233060E0
1.402077363E1,-2.100734430E0,2.134372292E0,2.183413767E0,3.706201007E0
1.403084662E1,-2.761193810E0,2.248805811E0,1.407218401E0,3.829044588E0
1.404091962E1,-3.398041549E0,2.389355918E0,5.605637938E-1,4.191651207E0
1.405099163E1,-3.896105624E0,2.323528549E0,2.498620498E-1,4.543220773E0
1.406106462E1,-4.090895381E0,2.391770234E0,3.413864699E-1,4.751056155E0
1.407113763E1,-3.883377697E0,2.654762206E0,8.612811247E-1,4.782278734E0
1.408121063E1,-3.280471876E0,2.999864874E0,1.525297658E0,4.699704027E0
1.409128363E1,-2.729240823E0,3.354082181E0,1.584041418E0,4.605193803E0
1.410135663E1,-2.333112136E0,3.474952900E0,2.239529203E0,4.747020217E0
1.411142963E1,-1.537866102E0,3.839219232E0,2.657419473E0,4.915944947E0
1.412150262E1,-8.393213215E-1,3.732065497E0,2.128728560E0,4.377700131E0
1.413157562E1,-4.922765011E-1,3.462644511E0,1.761147441E0,3.915850287E0
1.414164863E1,-2.257927175E-1,3.143305260E0,1.560311955E0,3.516521535E0
1.415172163E1,-2.258410301E-2,2.798324799E0,1.356349964E0,3.109793714E0
1.416179463E1,3.079324295E-1,2.367312500E0,1.249730956E0,2.694590566E0
1.417187100E1,6.514692130E-1,1.815033041E0,8.922830620E-1,2.124835556E0
1.418194400E1,1.056628267E0,1.135086645E0,2.294312936E-1,1.567649102E0
1.419201700E1,1.620177503E0,4.020744288E-1,-7.018813482E-1,1.810877250E0
1.420209000E1,2.208137110E0,-4.153131098E-1,-1.757149992E0,2.852355267E0
1.421216300E1,3.176158718E0,-1.473128800E0,-2.631506368E0,4.379830868E0
1.422223600E1,4.450967798E0,-2.482128426E0,-3.797215759E0,6.355385384E0
1.423230900E1,5.449274036E0,-2.913102134E0,-5.115329025E0,8.021679537E0
1.424238200E1,5.968079939E0,-2.788802024E0,-6.161945543E0,9.020253198E0
1.425245500E1,5.982982153E0,-2.260186831E0,-6.470800152E0,9.098119287E0
1.426252800E1,5.182740405E0,-1.868975360E0,-6.566661744E0,8.571750898E0
1.427260100E1,3.692660818E0,-1.541016144E0,-6.271872028E0,7.439546586E0
1.428267400E1,2.375073948E0,-9.026709330E-1,-5.294467832E0,5.872578709E0
1.429274600E1,1.388313476E0,-8.336199939E-2,-3.828940412E0,4.073714301E0
1.430281900E1,6.082785353E-1,8.140195423E-1,-2.494086275E0,2.693157429E0
1.431289200E1,1.789843675E-2,1.526523820E0,-1.001913093E0,1.826040846E0
1.432296500E1,-2.580659857E-1,1.572861249E0,1.343821719E-1,1.599546539E0
1.433303800E1,-4.313269889E-1,6.979680991E-1,3.564465585E-1,8.945706165E-1
1.434311100E1,-5.062685227E-1,-1.019645652E0,-1.377229786E-1,1.146713866E0
1.435318400E1,-4.559398565E-1,-3.136058221E0,-7.899392465E-1,3.265998520E0
1.436325700E1,-6.018127208E-1,-5.057686003E0,-7.357608466E-1,5.146232630E0
1.437333000E1,-1.287115568E0,-6.324727934E0,4.215550125E-3,6.454368110E0
1.438340300E1,-2.572543922E0,-7.010339112E0,1.142332807E0,7.554320680E0
1.439347600E1,-4.107097723E0,-7.993506909E0,1.832688124E0,9.171867322E0
1.440354900E1,-4.898525086E0,-8.712481130E0,7.510593554E-1,1.002332109E1
1.441362100E1,-4.698059729E0,-7.526582766E0,-2.561157639E0,9.234757268E0
1.442369400E1,-4.393359860E0,-4.192189329E0,-4.950213010E0,7.834581742E0
1.443376700E1,-4.420820723E0,8.706574273E-1,-3.910363474E0,5.965956983E0
1.444384000E1,-4.342365415E0,5.979690170E0,7.701147003E-1,7.430067872E0
1.445391300E1,-4.245129142E0,9.641142937E0,6.034078631E0,1.214013441E1
1.446398600E1,-4.210560988E0,1.085917409E1,7.913219376E0,1.408082123E1
1.447405900E1,-3.866654076E0,1.071595941E1,7.082168648E0,1.341416835E1
1.448413200E1,-3.166280432E0,9.254396984E0,5.421355920E0,1.118303605E1
1.449420500E1,-2.045192021E0,6.778307562E0,4.703164348E0,8.499883452E0
1.450427800E1,-5.609032246E-1,3.955338503E0,3.979530481E0,5.638792242E0
1.451435100E1,2.848506919E-1,1.242530987E0,3.301745801E0,3.539286440E0
1.452442400E1,5.885954918E-1,-2.341094754E0,1.700079120E0,2.952530833E0
1.453449600E1,8.556067673E-1,-5.626088575E0,1.013869772E0,5.780386449E0
1.454456900E1,1.057765697E0,-8.061837471E0,3.125640529E0,8.711011445E0
1.455464200E1,1.596982476E0,-9.659678026E0,3.873498534E0,1.052918437E1
1.456471500E1,2.346759829E0,-8.783104386E0,2.846781260E0,9.526508694E0
1.457478800E1,3.028062487E0,-4.623518547E0,9.762941024E-1,5.612418048E0
1.458486100E1,3.032035670E0,-1.888235503E-1,-1.357569985E-1,3.040941400E0
1.459493400E1,2.189509782E0,1.945445831E0,-2.360136504E-1,2.938437511E0
1.460500700E1,1.154581701E0,3.072761527E0,-3.278134744E-1,3.298845855E0
1.461508000E1,3.151315214E-1,3.541405921E0,-4.411443543E-1,3.582662713E0
1.462515300E1,-2.278959610E-1,3.179570276E0,-3.519768007E-1,3.207100151E0
1.463522600E1,-5.036877809E-1,1.927149893E0,-2.081513755E-1,2.002731906E0
1.464529900E1,-4.226132854E-1,6.148750716E-1,2.355587371E-1,7.824073500E-1
1.465537100E1,-4.142282320E-1,-1.869354844E-2,8.792494722E-1,9.721183628E-1
1.466544400E1,-5.531838036E-1,-4.310427046E-1,1.509737194E0,1.664667093E0
1.467551700E1,-6.704213545E-1,-6.946661764E-1,2.099591153E0,2.310910838E0
1.468559000E1,-6.566859526E-1,-7.210236704E-1,2.614150954E0,2.790142790E0
1.469566300E1,-4.404119906E-1,-4.561950874E-1,2.990021671E0,3.056518652E0
1.470573600E1,-7.226537280E-2,-1.624736577E-1,2.981586478E0,2.986884313E0
1.471580900E1,4.249265901E-1,3.862670660E-3,2.500562943E0,2.536413326E0
1.472588200E1,9.980850671E-1,2.072463727E-1,2.300066450E0,2.515835952E0
1.473595500E1,1.372954009E0,3.917476612E-1,2.359904809E0,2.758191373E0
1.474602800E1,1.484190855E0,2.205984896E-1,1.932219575E0,2.446417519E0
1.475610100E1,1.366810486E0,1.384684986E-1,1.154261420E0,1.794342179E0
1.476617400E1,1.145906991E0,2.483891362E-1,6.149026266E-1,1.323973276E0
1.477624600E1,7.842156994E-1,4.322016227E-1,-5.231496535E-2,8.969556073E-1
1.478631900E1,3.560998917E-1,2.571242917E-1,-8.564930590E-1,9.625489049E-1
1.479639200E1,4.046419412E-3,1.135055655E-1,-1.493058450E0,1.497372172E0
1.480646500E1,-2.013206582E-1,1.039184707E-1,-1.755538791E0,1.770097597E0
1.481653800E1,-2.516350718E-1,1.719052166E-1,-1.025078811E0,1.069419554E0
1.482661100E1,-2.579339118E-1,4.740250021E-1,-5.772698736E-1,7.902342137E-1
1.483668400E1,-3.022452083E-1,8.529432875E-1,-8.301760753E-2,9.087113628E-1
1.484675700E1,-6.213227963E-1,1.327075294E0,-1.434041333E-1,1.472323197E0
1.485683000E1,-7.086059386E-1,1.450399504E0,1.633758831E-1,1.622489684E0
1.486690300E1,-8.120374093E-1,1.369980408E0,3.955401653E-1,1.640945793E0
1.487697600E1,-8.819938628E-1,1.177003580E0,1.447560096E-1,1.477905580E0
1.488704800E1,-5.390446515E-1,8.389532393E-1,-6.461664462E-1,1.188251973E0
1.489712100E1,2.906554422E-1,5.609736836E-1,-2.047233576E0,2.142507264E0
1.490719400E1,1.219174869E0,2.199207973E-1,-2.508209932E0,2.797475573E0
1.491726700E1,2.029664009E0,-2.433049822E-1,-2.458544852E0,3.197370183E0
1.492734000E1,2.673455170E0,-8.900450402E-1,-2.342294018E0,3.664134821E0
1.493741300E1,3.157347348E0,-1.529352702E0,-1.965103585E0,4.021118509E0
1.494748600E1,3.329597551E0,-1.937554429E0,-1.725833182E0,4.221236452E0
1.495755900E1,3.269657743E0,-2.292666945E0,-1.169893439E0,4.161205851E0
1.496763200E1,3.114490474E0,-2.451859730E0,-1.005390725E0,4.089312602E0
1.497770500E1,2.880168861E0,-2.375919017E0,-1.270556107E0,3.943941767E0
1.498777800E1,2.577897633E0,-2.158687938E0,-1.732928778E0,3.782662022E0
1.499785100E1,2.276735475E0,-1.623182972E0,-2.332652544E0,3.641361734E0
1.500792300E1,1.859727111E0,-8.576690072E-1,-2.687376806E0,3.378783087E0
1.501799600E1,1.559398912E0,-4.961362481E-1,-2.241095088E0,2.774956457E0
1.502806900E1,1.529722539E0,-5.516672552E-1,-1.396699845E0,2.143632026E0
1.503814200E1,1.623966499E0,-9.759055549E-1,-7.623407540E-1,2.042259109E0
1.504821500E1,1.652274186E0,-1.620593825E0,-6.515225688E-1,2.404332753E0
1.505828800E1,1.690817277E0,-2.265410734E0,-8.024864211E-1,2.938525704E0
1.506836100E1,1.947122228E0,-2.647226899E0,-1.143456350E0,3.479452205E0
1.507843400E1,2.309943859E0,-2.747499046E0,-1.517384037E0,3.897056063E0
1.508850700E1,2.724462771E0,-2.961122392E0,-1.838545280E0,4.423933991E0
1.509858000E1,3.131207371E0,-3.373713623E0,-1.879165887E0,4.971686599E0
1.510865300E1,3.414606126E0,-3.808519596E0,-1.395185416E0,5.301971223E0
1.511872500E1,3.363686233E0,-4.073175686E0,-6.297644947E-1,5.319938774E0
1.512879800E1,3.071913680E0,-4.171305413E0,-3.735031790E-1,5.193837419E0
1.513887100E1,2.587687041E0,-3.838159717E0,-1.216966960E0,4.786293223E0
1.514894400E1,1.917454040E0,-3.030410728E0,-1.931432979E0,4.073137922E0
1.515901700E1,8.496983752E-1,-1.338905965E0,-2.606085305E0,3.050628973E0
1.516908588E1,-6.060288191E-1,7.688503861E-3,-3.785116115E0,3.833331977E0
1.517915888E1,-1.993242433E0,9.101506913E-1,-3.274450121E0,3.939976304E0
1.518923188E1,-2.737649704E0,1.371529920E0,-1.378746554E0,3.358089082E0
1.519930488E1,-3.441391636E0,7.119949847E-1,1.422815410E-1,3.517151872E0
1.520937787E1,-3.764691791E0,-9.844114995E-1,1.091933755E0,4.041570191E0
1.521945088E1,-3.839371845E0,-2.446873224E0,1.765793784E0,4.883235856E0
1.522952388E1,-3.870189010E0,-3.489142923E0,1.999004133E0,5.581084020E0
1.523959587E1,-4.023807060E0,-3.473914434E0,1.606526155E0,5.553380145E0
1.524966888E1,-3.470896686E0,-2.505176396E0,1.357349545E0,4.490593543E0
1.525974188E1,-1.915361029E0,-1.973446392E0,2.371215224E0,3.631220205E0
1.526981488E1,-2.783602095E-1,-1.992298985E0,2.807237710E0,3.453595693E0
1.527988788E1,4.265564284E-1,-1.676255225E0,1.555376905E0,2.326151174E0
1.528996088E1,8.536434916E-1,-2.041541896E0,1.650762534E0,2.760727707E0
1.530003387E1,8.683702889E-1,-1.903578597E0,2.461732169E0,3.230758998E0
1.531010687E1,4.743449910E-1,-1.122531504E0,2.264800869E0,2.571848193E0
1.532017988E1,3.489295243E-1,-5.487518334E-1,2.151749925E0,2.247867462E0
1.533025288E1,3.029355452E-1,-8.395139873E-2,2.286190861E0,2.307701548E0
1.534032588E1,-6.193443909E-3,7.302353740E-1,2.044284533E0,2.170801997E0
1.535039888E1,-6.575685167E-1,1.436065055E0,1.609124511E0,2.254764043E0
1.536047088E1,-1.027343511E0,8.817946190E-1,3.232030618E0,3.504143027E0
1.537054388E1,-1.308932845E0,-3.245122826E-1,4.655905105E0,4.847274055E0
1.538061688E1,-1.983227030E0,-2.775199646E-1,2.884419202E0,3.511421495E0
1.539068987E1,-2.255712103E0,-4.041811806E-1,1.778137403E0,2.900581346E0
1.540076287E1,-2.456007160E0,-2.750699812E-1,1.748150834E0,3.027154770E0
1.541083588E1,-2.803797500E0,4.891488254E-2,2.007571912E0,3.448770516E0
1.542090888E1,-3.110954955E0,6.635870558E-1,2.050185251E0,3.784395338E0
1.543098188E1,-3.263500040E0,1.475163047E0,1.619774045E0,3.930675067E0
1.544105488E1,-3.265721397E0,2.209256414E0,2.275560915E0,4.552354075E0
1.545112787E1,-2.916244135E0,2.433533387E0,3.407112334E0,5.102448340E0
1.546120087E1,-2.569798947E0,2.886855737E0,2.825067624E0,4.787359372E0
1.547127388E1,-2.329239817E0,3.166851413E0,2.013440763E0,4.416814429E0
1.548134587E1,-2.226930939E0,2.876291572E0,2.338714938E0,4.324564969E0
1.549141887E1,-2.219671766E0,2.887988927E0,1.846289040E0,4.083651064E0
1.550149188E1,-2.147745751E0,2.814982347E0,1.181951202E0,3.732820123E0
1.551156488E1,-2.167585208E0,2.592347857E0,1.011386752E0,3.527264692E0
1.552163788E1,-2.269667507E0,2.374449027E0,1.137942133E0,3.476249570E0
1.553171088E1,-2.179789516E0,2.191916496E0,1.526914998E0,3.447818103E0
1.554178387E1,-1.939633552E0,2.101651858E0,1.830340467E0,3.395477150E0
1.555185687E1,-1.480017990E0,2.059514483E0,2.399814248E0,3.491584394E0
1.556192988E1,-7.806473630E-1,1.996755148E0,2.916621573E0,3.619823591E0
1.557200288E1,-1.211275116E-1,1.851912600E0,2.666927338E0,3.249115815E0
1.558207588E1,4.376518124E-1,1.649476731E0,1.927142584E0,2.574138911E0
1.559214788E1,1.090475533E0,1.567870066E0,1.100247765E0,2.204064105E0
1.560222088E1,1.915109014E0,1.353501785E0,3.502496794E-1,2.371135689E0
1.561229388E1,2.746566415E0,1.133093330E0,-3.056707996E-1,2.986797985E0
1.562236688E1,3.643935386E0,8.367862612E-1,-6.141260433E-1,3.788882043E0
1.563243988E1,4.415864916E0,6.489818805E-1,-7.781845888E-1,4.530630385E0
1.564251287E1,5.109738502E0,3.753444672E-1,-8.923675543E-1,5.200637545E0
1.565258588E1,5.469200177E0,1.436906469E-1,-1.277573935E0,5.618273110E0
1.566265888E1,5.209142337E0,-2.377653301E-2,-1.642560060E0,5.462026434E0
1.567273188E1,4.335877344E0,-4.941955572E-1,-1.699789976E0,4.683305196E0
1.568280488E1,3.289416946E0,-9.801383543E-1,-2.018976029E0,3.982109899E0
1.569287788E1,2.691913953E0,-1.418767821E0,-2.676334046E0,4.052414933E0
1.570294988E1,2.362949454E0,-1.634528325E0,-3.658944896E0,4.652213529E0
1.571302288E1,2.115568524E0,-1.325967246E0,-4.745339145E0,5.362095012E0
1.572309588E1,1.975244265E0,-9.916626316E-1,-5.228886631E0,5.676816016E0
1.573316887E1,1.803518558E0,-8.572895229E-1,-5.517305220E0,5.867561794E0
1.574324188E1,1.511202653E0,-6.426756585E-1,-5.098610666E0,5.356547039E0
1.575331488E1,1.027319245E0,-1.283171475E-1,-4.274871005E0,4.398451117E0
1.576338788E1,2.363964238E-1,4.550390929E-1,-3.298975390E0,3.338589892E0
1.577346088E1,-7.444065396E-1,5.249671143E-1,-1.954295007E0,2.156154109E0
1.578353388E1,-1.816661929E0,9.852616847E-2,-1.100171459E0,2.126110348E0
1.579360687E1,-2.839293023E0,-7.616472012E-1,-3.037479427E-1,2.955326402E0
1.580367988E1,-4.225373447E0,-2.019487953E0,4.391630253E-1,4.703719435E0
1.581375288E1,-6.229845750E0,-3.910542399E0,5.378467762E-1,7.375133835E0
1.582382487E1,-7.581359482E0,-5.688954914E0,7.041772574E-2,9.478722396E0
1.583389788E1,-7.753935959E0,-6.506351808E0,-3.708105361E-1,1.012885172E1
1.584397088E1,-6.755725615E0,-6.237106823E0,-1.166116942E0,9.268287804E0
1.585404388E1,-4.664103486E0,-5.547849321E0,-2.989775796E0,7.840360497E0
1.586411688E1,-2.483445219E0,-4.902516103E0,-4.476756650E0,7.088265966E0
1.587418988E1,-8.411200713E-1,-3.233458800E0,-4.423822099E0,5.543729859E0
1.588426287E1,2.856423318E-1,-8.143604350E-1,-2.853604376E0,2.981246785E0
1.589433587E1,6.673254000E-1,2.027469987E0,1.014078225E0,2.363114975E0
1.590440888E1,-2.451345029E-1,5.081861317E0,6.406158013E0,8.180725265E0
1.591448188E1,-2.079531257E0,7.626038641E0,9.822662730E0,1.260815683E1
1.592455388E1,-3.734830645E0,9.027383514E0,9.238158681E0,1.344567547E1
1.593462688E1,-4.520878862E0,9.012560822E0,6.819676028E0,1.217261596E1
1.594469988E1,-3.344842411E0,7.205792820E0,3.941644324E0,8.868369687E0
1.595477288E1,-8.142260952E-1,4.242163727E0,1.961307280E0,4.744011327E0
1.596484588E1,1.156159938E0,1.632698731E0,8.949455917E-1,2.191652016E0
1.597491887E1,2.105152586E0,-1.335328639E-2,1.546713670E0,2.612311027E0
1.598499187E1,2.342039811E0,-1.473779595E0,3.609862198E0,4.548437299E0
1.599506488E1,2.119679409E0,-3.578877802E0,5.775602463E0,7.117512974E0
1.600513788E1,2.065437128E0,-6.698595394E0,6.550055652E0,9.593770887E0
1.601521088E1,2.441801350E0,-8.177653272E0,6.004332091E0,1.043496098E1
1.602528388E1,2.870985809E0,-6.814959079E0,3.954627774E0,8.386018578E0
1.603535687E1,3.009415424E0,-3.563116633E0,1.741248196E0,4.978385944E0
1.604542888E1,2.717817703E0,-8.331761903E-1,5.218485019E-1,2.890162883E0
1.605550188E1,1.744522345E0,7.447510868E-1,4.385324031E-2,1.897349599E0
1.606557487E1,2.362991408E-1,1.346616688E0,-3.060377124E-1,1.401025650E0
1.607564787E1,-1.458819640E0,1.584128834E0,-2.459865153E-1,2.167516614E0
1.608572088E1,-2.692423537E0,1.644342876E0,3.222765997E-2,3.155003426E0
1.609579388E1,-3.213427994E0,1.299510350E0,-3.274910004E-1,3.481680194E0
1.610586688E1,-3.158558014E0,7.801448679E-1,-6.649477029E-1,3.320733382E0
1.611593988E1,-2.781552938E0,5.282666981E-1,-2.626054716E-1,2.843424711E0
1.612601288E1,-2.344635243E0,4.528031176E-1,6.817466073E-1,2.483369389E0
1.613608587E1,-1.710048477E0,2.791133308E-1,1.335286539E0,2.187500899E0
1.614615888E1,-7.800758708E-1,6.490292430E-2,1.903645402E0,2.058299436E0
1.615623087E1,9.104611784E-2,-1.263548219E-1,2.482488030E0,2.487368440E0
1.616630454E1,6.185741664E-1,-1.745580983E-1,2.548268037E0,2.628074298E0
1.617637754E1,9.974045974E-1,-1.554002810E-1,2.063516171E0,2.297186141E0
1.618645054E1,1.362070879E0,-3.951139033E-2,1.882335663E0,2.323786948E0
1.619652354E1,1.569210248E0,7.112553120E-3,1.746694147E0,2.348065551E0
1.620659654E1,1.782263783E0,-1.948572922E-1,1.304049543E0,2.216975139E0
1.621666954E1,2.087668534E0,-2.457701683E-1,1.167676248E0,2.404626937E0
1.622674254E1,2.273400077E0,-2.391148674E-1,9.814821906E-1,2.487736144E0
1.623681554E1,2.253167249E0,-3.343198174E-1,5.401285060E-1,2.340997906E0
1.624688854E1,2.207470089E0,-4.376032805E-1,2.929384875E-1,2.269412652E0
1.625696154E1,2.016496518E0,-3.036961949E-1,-7.526652932E-2,2.040626040E0
1.626703354E1,1.822357117E0,-2.166247219E-1,-7.082721356E-1,1.967120015E0
1.627710654E1,1.757200716E0,-1.030875814E-1,-8.692097298E-1,1.963137020E0
1.628717954E1,1.627969795E0,2.045063674E-2,-1.172158651E0,2.006155474E0
1.629725254E1,1.339082843E0,2.008156049E-1,-1.627720996E0,2.117296722E0
1.630732554E1,9.157542973E-1,4.371624005E-1,-1.871853944E0,2.129214429E0
1.631739854E1,6.472419684E-1,5.990589380E-1,-1.581821523E0,1.811064081E0
1.632747154E1,6.387313461E-1,7.787544000E-1,-9.884682977E-1,1.411207187E0
1.633754454E1,7.074991337E-1,1.096002102E0,-8.384380996E-1,1.550726952E0
1.634761754E1,6.556415668E-1,1.376257394E0,-1.249911343E0,1.971351984E0
1.635769054E1,4.287144895E-1,1.476123744E0,-1.743700519E0,2.324484657E0
1.636776354E1,3.134532975E-1,1.404628084E0,-1.722124878E0,2.244314398E0
1.637783554E1,1.867039347E-1,1.279397682E0,-1.682735694E0,2.122101836E0
1.638790854E1,1.077176991E-1,9.465712434E-1,-2.126573861E0,2.330218146E0
1.639798154E1,2.801766470E-1,4.758142501E-1,-2.222029656E0,2.289609999E0
1.640805454E1,7.971307370E-1,1.892088819E-1,-1.424013943E0,1.642873435E0
1.641812754E1,1.481040814E0,3.530724227E-2,-4.705968161E-1,1.554409810E0
1.642820054E1,2.227374304E0,1.402407897E-1,2.815076195E-2,2.231962417E0
1.643827354E1,2.758368436E0,1.458295584E-3,1.165033964E-1,2.760828063E0
1.644834654E1,2.981942573E0,-5.712489957E-1,-4.602639455E-2,3.036515331E0
1.645841954E1,2.858489140E0,-1.128461165E0,-3.604077548E-1,3.094233106E0
1.646849254E1,2.398662785E0,-1.505631133E0,-7.132807875E-1,2.920492724E0
1.647856554E1,1.784014439E0,-1.661712615E0,-1.106743510E0,2.677475963E0
1.648863754E1,1.019802065E0,-1.798495361E0,-1.688303998E0,2.669260610E0
1.649871054E1,2.571605444E-1,-1.820828801E0,-2.007433333E0,2.722377207E0
1.650878354E1,-3.727493267E-1,-1.300606703E0,-2.224428184E0,2.603574581E0
1.651885654E1,-5.492845148E-1,-7.540861666E-1,-1.543412917E0,1.803464127E0
1.652892954E1,-2.934824248E-1,-3.782838625E-1,-7.827674172E-1,9.175813009E-1
